;Title, http://www.gcdataconcepts.com, x16-1d, ADXL345
;Version, 1877, Build date, Jan  8 2020,  SN:CCDC4016ECDDBE3
;Start_time, 2007-01-06, 00:13:57.289
;Uptime, 432615,sec,  Vbat, 1190, mv, EOL, 1000, mv
;SampleRate, 100,Hz
;Deadband, 0, counts
;DeadbandTimeout, 15.000,sec
;Time, Ax, Ay, Az
0.006017,49,-25,-2011
0.015755,58,12,-2022
0.025523,85,51,-2041
0.035523,89,12,-2063
0.045260,69,-9,-2104
0.055028,53,17,-2077
0.064766,80,8,-2043
0.074503,74,-36,-2075
0.084503,8,-33,-2086
0.094272,35,-6,-2047
0.104009,85,-8,-2043
0.113747,69,-4,-2059
0.123515,69,10,-2047
0.133515,66,12,-2054
0.143252,60,5,-2041
0.152990,73,5,-2027
0.162758,69,3,-2031
0.172495,64,3,-2031
0.182495,80,7,-2041
0.192233,89,3,-2040
0.202001,67,3,-2041
0.211739,62,7,-2031
0.221476,82,7,-2022
0.231476,76,7,-2036
0.241244,62,10,-2036
0.250920,74,12,-2038
0.260749,80,5,-2040
0.270517,80,-2,-2043
0.280254,83,-2,-2056
0.290254,73,1,-2045
0.299992,76,3,-2023
0.309729,71,1,-2016
0.319497,66,-4,-2018
0.329235,80,-2,-2040
0.339235,73,8,-2034
0.348972,85,10,-2011
0.358741,96,14,-2047
0.368478,74,12,-2057
0.378216,69,7,-2038
0.388216,64,0,-2061
0.397984,53,-2,-2061
0.407721,58,-2,-2034
0.417459,57,-4,-2020
0.427227,58,-4,-2034
0.437227,76,0,-2056
0.446964,76,0,-2034
0.456702,71,-6,-2016
0.466470,78,0,-2040
0.476208,78,5,-2040
0.486208,74,5,-2018
0.495945,78,3,-2027
0.505713,82,1,-2047
0.515451,73,-2,-2043
0.525188,69,-4,-2032
0.535188,69,0,-2029
0.544956,60,0,-2036
0.554694,64,-9,-2036
0.564431,66,-17,-2025
0.574200,66,-6,-2036
0.584200,78,7,-2048
0.593937,76,3,-2045
0.603675,69,1,-2048
0.613443,64,1,-2040
0.623180,62,0,-2036
0.633180,71,5,-2056
0.642918,74,12,-2047
0.652686,67,0,-2022
0.662423,64,-8,-2023
0.672161,78,7,-2036
0.682161,87,8,-2032
0.691929,67,-4,-2031
0.701667,60,-2,-2041
0.711404,67,0,-2031
0.721172,66,-4,-2016
0.731172,71,5,-2032
0.740910,71,12,-2036
0.750647,71,1,-2034
0.760385,82,1,-2052
0.770153,83,8,-2052
0.780153,71,3,-2040
0.789890,64,-2,-2034
0.799628,71,-2,-2038
0.809396,66,0,-2040
0.819134,55,0,-2047
0.829134,62,0,-2056
0.838871,67,0,-2040
0.848639,58,-4,-2045
0.858377,62,-4,-2052
0.868114,64,3,-2032
0.878114,66,7,-2023
0.887882,85,10,-2036
0.897620,85,7,-2045
0.907357,74,-2,-2031
0.917126,73,-4,-2029
0.927126,66,-6,-2041
0.936863,64,-2,-2038
0.946631,74,-2,-2054
0.956369,73,-2,-2043
0.966106,71,8,-2025
0.976106,76,5,-2048
0.985874,69,-4,-2057
0.995612,62,0,-2036
1.005349,80,-2,-2025
1.015118,83,0,-2034
1.025118,62,10,-2047
1.034855,66,3,-2048
1.044623,82,0,-2036
1.054361,71,5,-2043
1.064098,71,8,-2056
1.074098,80,12,-2034
1.083866,73,8,-2020
1.093604,74,-6,-2025
1.103341,76,3,-2047
1.113109,69,8,-2056
1.123109,67,-4,-2047
1.132847,60,-4,-2052
1.142585,62,3,-2045
1.152353,64,1,-2041
1.162090,69,7,-2048
1.172090,85,5,-2034
1.181828,83,-2,-2032
1.191596,74,0,-2041
1.201333,80,5,-2045
1.211101,76,5,-2045
1.221101,73,3,-2038
1.230839,87,5,-2041
1.240576,87,5,-2054
1.249976,78,0,-2038
1.260141,80,-8,-2013
1.269878,71,-4,-2032
1.279878,60,-2,-2038
1.289616,71,-9,-2016
1.299384,78,-2,-2029
1.309121,74,8,-2040
1.318889,82,10,-2040
1.328889,82,7,-2050
1.338627,78,1,-2045
1.348365,94,-2,-2043
1.358133,82,-4,-2043
1.367870,67,-2,-2040
1.377870,78,1,-2023
1.387638,67,0,-2020
1.397376,64,-9,-2045
1.407113,78,-2,-2052
1.416881,76,16,-2048
1.426881,66,7,-2040
1.436619,62,-8,-2018
1.446357,66,-4,-2025
1.456125,74,0,-2036
1.465862,71,-2,-2038
1.475862,71,-4,-2045
1.485600,82,8,-2038
1.495368,78,-4,-2029
1.505105,71,-15,-2040
1.514843,71,7,-2034
1.524843,76,8,-2022
1.534611,76,-2,-2031
1.544348,69,3,-2043
1.554086,71,0,-2036
1.563854,62,0,-2022
1.573854,58,10,-2036
1.583592,73,5,-2043
1.593360,66,-4,-2036
1.603097,69,-2,-2038
1.612835,92,5,-2032
1.622835,82,1,-2027
1.632603,71,-2,-2018
1.642340,78,0,-2016
1.652108,89,-4,-2023
1.661846,82,-4,-2036
1.671846,64,7,-2056
1.681584,76,14,-2054
1.691352,80,10,-2045
1.701089,78,12,-2047
1.710857,82,16,-2047
1.720857,64,1,-2041
1.730595,62,-2,-2043
1.739994,83,12,-2036
1.750128,83,5,-2023
1.759897,73,-4,-2027
1.769634,74,8,-2034
1.779634,74,12,-2041
1.789372,82,1,-2047
1.799140,78,-4,-2036
1.808877,67,-4,-2031
1.818615,67,5,-2043
1.828615,58,-6,-2052
1.838383,66,-25,-2048
1.848120,76,-11,-2045
1.857858,62,0,-2034
1.867626,66,-2,-2027
1.877626,74,1,-2038
1.887364,67,-4,-2034
1.897132,73,3,-2025
1.906869,76,14,-2029
1.916607,76,1,-2034
1.926607,76,-6,-2034
1.936375,57,1,-2029
1.946112,48,0,-2032
1.955850,60,-2,-2040
1.965618,66,1,-2038
1.975618,67,3,-2041
1.985356,69,0,-2036
1.995093,66,-4,-2031
2.004861,69,3,-2038
2.014599,74,16,-2029
2.024599,71,12,-2029
2.034367,69,5,-2047
2.044104,83,8,-2038
2.053842,87,3,-2027
2.063610,82,-8,-2031
2.073610,71,-9,-2031
2.083347,62,-2,-2052
2.093085,66,0,-2047
2.102853,78,-2,-2029
2.112591,74,-2,-2040
2.122591,58,-4,-2032
2.132328,57,3,-2023
2.142096,69,14,-2034
2.151834,80,17,-2048
2.161602,74,7,-2052
2.171602,66,-4,-2045
2.181339,64,8,-2040
2.191107,60,5,-2034
2.200845,78,-2,-2029
2.210583,94,3,-2041
2.220583,71,-4,-2050
2.230351,64,3,-2045
2.240088,73,10,-2045
2.249488,73,1,-2041
2.259652,66,-2,-2031
2.269390,74,0,-2029
2.279390,85,0,-2040
2.289128,69,0,-2043
2.298896,69,-2,-2041
2.308633,74,-2,-2038
2.318371,60,5,-2032
2.328371,71,12,-2029
2.338139,80,3,-2038
2.347876,78,-4,-2050
2.357614,82,5,-2041
2.367382,73,7,-2029
2.377382,71,1,-2041
2.387119,80,1,-2045
2.396888,67,0,-2034
2.406625,64,-4,-2040
2.416363,76,1,-2038
2.426363,74,10,-2038
2.436100,67,5,-2036
2.445868,78,0,-2029
2.455606,71,0,-2047
2.465343,60,5,-2041
2.475343,69,14,-2027
2.485111,62,0,-2038
2.494849,58,-2,-2038
2.504587,73,7,-2038
2.514355,74,1,-2045
2.524355,73,-2,-2048
2.534092,73,-2,-2041
2.543830,71,-9,-2029
2.553598,73,-8,-2032
2.563335,80,-6,-2036
2.573335,78,-9,-2023
2.583073,74,0,-2034
2.592841,73,5,-2050
2.602578,73,-6,-2043
2.612347,78,-6,-2029
2.622347,71,0,-2031
2.632084,62,0,-2043
2.641822,67,-2,-2050
2.651559,66,0,-2038
2.661327,69,-4,-2027
2.671327,80,-8,-2027
2.681065,82,-2,-2023
2.690802,74,0,-2031
2.700570,60,-2,-2054
2.710308,62,8,-2068
2.720308,80,14,-2041
2.730076,83,-4,-2015
2.739814,71,-9,-2038
2.749551,67,1,-2043
2.759289,71,1,-2029
2.769289,73,-2,-2038
2.779057,74,-8,-2034
2.788794,76,-8,-2032
2.798562,74,3,-2031
2.808300,67,3,-2029
2.818300,71,-6,-2036
2.828037,74,-9,-2038
2.837775,73,-2,-2020
2.847543,71,1,-2023
2.857281,67,-2,-2047
2.867281,62,0,-2034
2.877049,58,5,-2031
2.886786,73,0,-2054
2.896524,76,0,-2057
2.906292,69,-2,-2045
2.916292,76,1,-2041
2.926029,67,1,-2047
2.935767,53,-6,-2031
2.945535,67,-4,-2013
2.955273,85,0,-2043
2.965273,80,5,-2061
2.975010,62,5,-2027
2.984778,67,1,-2038
2.994516,80,7,-2061
3.004253,74,8,-2041
3.014253,67,-4,-2031
3.024021,64,1,-2023
3.033759,71,12,-2023
3.043496,74,7,-2029
3.053264,69,-4,-2036
3.063264,69,-6,-2045
3.073002,62,0,-2032
3.082770,67,-2,-2020
3.092508,78,1,-2029
3.102245,67,10,-2032
3.112245,71,-2,-2031
3.122013,78,-8,-2040
3.131751,66,1,-2036
3.141519,66,0,-2041
3.151256,71,-4,-2045
3.161256,71,-2,-2032
3.170994,66,-2,-2045
3.180762,58,-4,-2040
3.190500,73,1,-2016
3.200268,87,3,-2031
3.210268,82,0,-2041
3.220005,74,5,-2032
3.229743,82,-4,-2032
3.239511,87,-6,-2040
3.248910,78,10,-2036
3.259045,71,1,-2027
3.269045,82,-4,-2031
3.278782,80,10,-2032
3.288550,69,3,-2022
3.298288,73,-6,-2020
3.308056,66,1,-2029
3.318056,55,1,-2052
3.327793,57,0,-2061
3.337531,57,3,-2022
3.347299,66,-2,-2029
3.357036,71,-4,-2077
3.367036,66,1,-2050
3.376774,73,-2,-2009
3.386542,73,1,-2031
3.396280,66,7,-2050
3.406048,62,5,-2040
3.416048,67,14,-2043
3.425785,78,12,-2057
3.435523,78,5,-2036
3.445291,73,7,-2031
3.455028,73,1,-2036
3.465028,73,-2,-2015
3.474766,78,-2,-2038
3.484534,73,0,-2059
3.494272,64,3,-2048
3.504040,62,0,-2050
3.514040,66,-4,-2050
3.523777,76,7,-2041
3.533515,73,7,-2031
3.543283,62,-8,-2029
3.553020,73,7,-2048
3.563020,76,19,-2059
3.572758,69,-6,-2045
3.582526,73,-4,-2031
3.592264,76,10,-2020
3.602001,67,-11,-2023
3.612001,60,-15,-2040
3.621769,64,7,-2041
3.631507,76,5,-2036
3.641275,76,3,-2040
3.651012,66,16,-2043
3.661012,62,5,-2027
3.670750,74,-2,-2031
3.680518,82,12,-2065
3.690255,67,8,-2066
3.700024,71,-8,-2031
3.710024,83,-11,-2027
3.719761,73,-8,-2048
3.729499,80,1,-2036
3.739267,85,-2,-2029
3.749004,73,-2,-2040
3.759004,73,8,-2038
3.768742,73,0,-2038
3.778510,73,-8,-2047
3.788247,73,3,-2045
3.797985,69,-4,-2031
3.807985,76,-9,-2032
3.817753,78,1,-2059
3.827491,78,1,-2047
3.837228,73,-8,-2022
3.846996,64,-2,-2034
3.856996,74,8,-2045
3.866734,78,7,-2050
3.876471,76,-2,-2047
3.886239,78,5,-2038
3.895977,82,12,-2041
3.905977,89,7,-2038
3.915745,82,8,-2032
3.925482,66,12,-2040
3.935220,78,10,-2041
3.944988,82,12,-2029
3.954988,66,8,-2018
3.964726,74,5,-2031
3.974463,83,-2,-2038
3.984231,76,-4,-2032
3.993969,76,0,-2052
4.003969,67,-2,-2054
4.013737,57,-2,-2023
4.023474,69,-2,-2027
4.033212,85,0,-2052
4.042980,73,0,-2047
4.052980,64,-4,-2029
4.062718,76,3,-2036
4.072455,80,3,-2034
4.082223,78,-4,-2020
4.091961,83,1,-2029
4.101961,80,5,-2048
4.111698,78,0,-2054
4.121466,74,3,-2059
4.131204,66,7,-2048
4.140972,67,1,-2031
4.150972,74,0,-2027
4.160710,73,3,-2029
4.170447,80,-2,-2036
4.180215,82,-4,-2043
4.189953,64,-2,-2029
4.199953,53,-2,-2031
4.209690,64,5,-2059
4.219458,60,5,-2057
4.229196,64,-4,-2040
4.238964,78,1,-2047
4.248964,73,10,-2040
4.258363,71,5,-2034
4.268498,71,-4,-2048
4.278266,76,8,-2052
4.288003,80,16,-2047
4.297741,67,5,-2043
4.307741,64,8,-2048
4.317509,62,3,-2047
4.327246,71,-2,-2034
4.336984,78,0,-2040
4.346752,71,-2,-2022
4.356752,87,7,-2000
4.366490,83,1,-2034
4.376227,64,-8,-2059
4.385995,67,5,-2057
4.395733,76,14,-2041
4.405733,83,5,-2027
4.415470,82,-2,-2036
4.425238,66,-4,-2023
4.434976,67,-6,-2031
4.444744,74,0,-2050
4.454744,67,1,-2036
4.464482,82,1,-2038
4.474219,82,0,-2045
4.483987,67,-2,-2027
4.493725,78,1,-2027
4.503725,76,0,-2034
4.513462,71,-2,-2025
4.523230,66,1,-2040
4.532968,60,0,-2045
4.542736,74,-2,-2034
4.552736,78,0,-2041
4.562473,74,0,-2038
4.572211,74,-2,-2031
4.581979,76,-4,-2043
4.591717,73,0,-2054
4.601717,69,1,-2056
4.611454,74,-6,-2041
4.621222,71,-4,-2029
4.630960,64,1,-2041
4.640728,76,0,-2041
4.650728,78,-2,-2032
4.660465,60,1,-2038
4.670203,71,5,-2040
4.679971,87,7,-2045
4.689709,71,12,-2052
4.699709,67,16,-2041
4.709446,83,10,-2029
4.719214,74,3,-2029
4.728952,76,3,-2040
4.738689,80,5,-2038
4.748689,60,-2,-2023
4.758457,74,0,-2041
4.768195,80,7,-2059
4.777932,66,0,-2045
4.787701,71,-8,-2040
4.797701,74,-9,-2048
4.807438,76,-4,-2036
4.817206,76,-4,-2023
4.826944,76,5,-2043
4.836681,87,12,-2047
4.846681,78,-6,-2032
4.856449,60,-2,-2025
4.866187,74,17,-2025
4.875924,78,10,-2036
4.885692,67,0,-2041
4.895692,74,-2,-2034
4.905430,73,-9,-2029
4.915198,69,-8,-2036
4.924936,67,-2,-2031
4.934673,58,3,-2032
4.944673,58,0,-2040
4.954441,66,-15,-2023
4.964179,78,-8,-2038
4.973916,76,1,-2041
4.983684,62,-6,-2020
4.993684,58,-2,-2027
5.003422,64,1,-2034
5.013190,74,5,-2048
5.022928,76,8,-2048
5.032665,78,-4,-2034
5.042665,78,-4,-2025
5.052433,66,1,-2015
5.062171,67,-4,-2032
5.071939,91,1,-2045
5.081676,85,5,-2047
5.091676,71,-2,-2047
5.101414,83,7,-2025
5.111182,73,7,-2018
5.120920,58,0,-2032
5.130657,74,-2,-2040
5.140657,69,-8,-2041
5.150425,55,-2,-2031
5.160163,58,-2,-2032
5.169900,60,-11,-2038
5.179668,57,0,-2023
5.189668,62,3,-2027
5.199406,66,-4,-2031
5.209174,60,-4,-2034
5.218911,76,5,-2052
5.228649,89,10,-2045
5.238649,69,5,-2025
5.248417,76,5,-2018
5.258155,89,8,-2034
5.267892,82,-2,-2048
5.277660,71,-9,-2043
5.287660,53,3,-2034
5.297398,66,8,-2029
5.307135,83,0,-2020
5.316903,71,1,-2013
5.326641,67,0,-2022
5.336641,71,1,-2041
5.346378,83,16,-2023
5.356147,91,5,-2018
5.365884,85,-4,-2054
5.375622,76,0,-2054
5.385622,69,0,-2040
5.395390,64,5,-2050
5.405127,66,1,-2045
5.414865,74,1,-2040
5.424633,80,5,-2057
5.434633,73,-2,-2043
5.444370,71,5,-2027
5.454108,74,12,-2050
5.463876,74,3,-2041
5.473614,80,-4,-2013
5.483614,83,0,-2031
5.493351,83,5,-2036
5.503119,78,1,-2029
5.512857,64,1,-2045
5.522625,62,5,-2031
5.532625,58,5,-2029
5.542362,62,5,-2061
5.552100,73,1,-2043
5.561868,78,-2,-2031
5.571606,82,-4,-2052
5.581606,82,1,-2045
5.591374,78,10,-2047
5.601111,71,1,-2047
5.610849,82,0,-2034
5.620617,91,1,-2032
5.630617,73,7,-2023
5.640354,69,17,-2034
5.650092,73,1,-2045
5.659860,78,-9,-2025
5.669597,83,3,-2038
5.679597,62,3,-2061
5.689366,58,0,-2047
5.699103,82,16,-2048
5.708841,82,16,-2054
5.718609,73,0,-2034
5.728609,78,1,-2036
5.738346,71,8,-2043
5.748084,62,1,-2040
5.757852,71,-2,-2036
5.767589,64,0,-2036
5.777589,62,-6,-2045
5.787327,74,-4,-2047
5.797095,62,3,-2036
5.806833,60,1,-2036
5.816601,78,-2,-2032
5.826601,73,-4,-2018
5.836338,74,0,-2027
5.846076,82,-6,-2041
5.855844,67,-6,-2041
5.865581,62,5,-2041
5.875581,71,0,-2025
5.885319,73,-4,-2009
5.895087,73,3,-2018
5.904825,62,-2,-2032
5.914593,66,-6,-2034
5.924593,82,5,-2041
5.934330,83,7,-2048
5.944068,73,-6,-2038
5.953836,78,-2,-2029
5.963573,82,12,-2036
5.973573,76,7,-2050
5.983341,76,0,-2047
5.993079,85,7,-2050
6.002816,85,10,-2045
6.012585,78,8,-2027
6.022585,73,3,-2032
6.032322,69,-11,-2034
6.042060,71,-9,-2034
6.051828,80,1,-2023
6.061565,73,3,-2020
6.071565,62,3,-2041
6.081303,67,1,-2038
6.091071,69,1,-2041
6.100808,66,7,-2043
6.110576,74,8,-2027
6.120576,85,8,-2032
6.130314,89,7,-2029
6.140052,85,-2,-2025
6.149820,73,-9,-2032
6.159557,78,-8,-2045
6.169557,74,-8,-2050
6.179295,62,-2,-2029
6.189063,69,1,-2032
6.198800,80,-2,-2054
6.208568,83,-2,-2040
6.218568,64,-2,-2031
6.228306,53,-2,-2032
6.238044,76,0,-2016
6.248481,78,3,-2027
6.257577,66,3,-2047
6.267345,64,0,-2041
6.277345,69,0,-2048
6.287083,74,0,-2041
6.296820,76,-2,-2029
6.306588,73,-2,-2045
6.316326,66,3,-2050
6.326326,67,5,-2034
6.336064,67,-6,-2020
6.345832,78,-2,-2029
6.355569,89,8,-2036
6.365307,69,-4,-2025
6.375307,66,-6,-2032
6.385075,92,0,-2034
6.394812,96,5,-2027
6.404550,80,8,-2032
6.414318,69,0,-2036
6.424318,71,0,-2031
6.434055,80,-4,-2029
6.443793,73,-8,-2031
6.453561,60,0,-2052
6.463299,62,0,-2054
6.473299,66,-4,-2025
6.483036,64,-4,-2034
6.492804,66,1,-2048
6.502542,71,5,-2034
6.512279,66,3,-2027
6.522279,62,5,-2036
6.532047,73,1,-2040
6.541785,69,-2,-2048
6.551523,64,0,-2031
6.561291,71,0,-2029
6.571291,66,-2,-2065
6.581028,64,5,-2054
6.590766,66,10,-2020
6.600534,57,7,-2027
6.610271,64,14,-2057
6.620271,76,16,-2056
6.630009,74,1,-2029
6.639777,76,0,-2029
6.649514,76,10,-2052
6.659252,66,7,-2045
6.669252,64,-2,-2020
6.679020,66,3,-2032
6.688758,67,7,-2052
6.698495,71,-2,-2043
6.708263,69,-9,-2023
6.718263,76,-2,-2031
6.728001,85,1,-2038
6.737738,78,-11,-2025
6.747506,87,-2,-2031
6.757244,89,10,-2038
6.767244,69,1,-2038
6.776982,74,8,-2050
6.786750,78,12,-2036
6.796487,80,12,-2029
6.806225,87,10,-2056
6.816225,71,-2,-2045
6.825993,71,0,-2031
6.835730,82,3,-2040
6.845468,80,-2,-2027
6.855236,74,3,-2023
6.865236,67,0,-2047
6.874973,67,-11,-2043
6.884742,74,-9,-2027
6.894479,78,-4,-2034
6.904217,74,-6,-2034
6.914217,64,-4,-2025
6.923954,74,-4,-2029
6.933722,73,1,-2029
6.943460,53,8,-2036
6.953197,76,-4,-2032
6.963197,91,-8,-2022
6.972965,67,7,-2034
6.982703,64,-6,-2031
6.992471,85,-9,-2029
7.002209,80,8,-2032
7.012209,67,3,-2040
7.021946,80,1,-2065
7.031714,67,8,-2054
7.041452,48,0,-2032
7.051189,66,-6,-2031
7.061189,80,0,-2034
7.070957,64,-2,-2047
7.080695,66,-9,-2032
7.090432,74,0,-2034
7.100201,67,3,-2036
7.110201,62,-2,-2027
7.119938,69,0,-2031
7.129676,76,-2,-2025
7.139444,69,-2,-2038
7.149181,57,5,-2048
7.159181,67,12,-2038
7.168919,78,7,-2036
7.178687,73,1,-2050
7.188424,74,16,-2043
7.198162,82,14,-2027
7.208162,76,-2,-2027
7.217930,73,7,-2032
7.227668,76,8,-2031
7.237436,71,5,-2048
7.246835,66,14,-2063
7.256969,67,10,-2040
7.266969,74,-4,-2036
7.276707,71,-11,-2036
7.286475,69,-11,-2040
7.296212,67,-6,-2050
7.305950,57,-2,-2034
7.315950,49,1,-2041
7.325718,64,17,-2054
7.335456,78,14,-2029
7.345193,78,-6,-2022
7.354961,74,-4,-2045
7.364961,66,-2,-2043
7.374699,69,-6,-2027
7.384436,78,1,-2029
7.394204,67,10,-2047
7.403942,57,12,-2050
7.413942,60,10,-2043
7.423710,91,12,-2045
7.433448,101,19,-2032
7.443185,80,8,-2029
7.452953,78,-2,-2032
7.462953,83,7,-2034
7.472691,74,5,-2048
7.482428,67,-9,-2032
7.492196,66,-6,-2013
7.501934,67,1,-2034
7.511934,71,-6,-2045
7.521671,60,-2,-2031
7.531440,57,8,-2038
7.541177,62,5,-2056
7.550945,64,-4,-2047
7.560945,73,3,-2032
7.570683,85,12,-2025
7.580420,82,12,-2041
7.590188,67,7,-2031
7.599926,71,3,-2015
7.609926,71,0,-2048
7.619694,67,-2,-2041
7.629431,76,7,-2013
7.639169,73,14,-2031
7.648937,67,14,-2047
7.658937,64,12,-2047
7.668675,62,1,-2040
7.678412,80,-4,-2029
7.688180,76,0,-2038
7.697918,64,5,-2056
7.707918,71,0,-2052
7.717686,71,-4,-2032
7.727423,69,1,-2023
7.737161,76,7,-2025
7.746929,73,-4,-2025
7.756929,64,-8,-2025
7.766667,69,0,-2041
7.776435,73,0,-2045
7.786172,66,-2,-2040
7.795910,69,-2,-2031
7.805910,73,7,-2032
7.815678,69,19,-2057
7.825415,78,21,-2052
7.835183,80,7,-2029
7.844921,62,1,-2031
7.854921,66,16,-2043
7.864659,76,17,-2038
7.874427,71,5,-2045
7.884164,73,1,-2045
7.893932,74,3,-2034
7.903932,66,-2,-2031
7.913670,67,-2,-2025
7.923407,66,0,-2040
7.933175,67,-2,-2043
7.942913,74,0,-2025
7.952913,76,1,-2040
7.962681,67,1,-2054
7.972419,60,-9,-2029
7.982156,57,-9,-2034
7.991924,60,0,-2047
8.001924,73,-2,-2025
8.011662,76,-2,-2031
8.021430,71,0,-2048
8.031167,73,1,-2047
8.040905,74,3,-2045
8.050905,82,5,-2054
8.060673,83,8,-2047
8.070410,71,0,-2027
8.080179,74,5,-2040
8.089916,78,23,-2043
8.099916,66,14,-2015
8.109654,69,1,-2023
8.119422,73,5,-2048
8.129159,76,7,-2032
8.138927,85,5,-2025
8.148927,67,3,-2034
8.158665,58,0,-2041
8.168402,73,0,-2047
8.178170,64,-4,-2041
8.187908,58,-8,-2023
8.197908,78,-4,-2022
8.207676,73,-15,-2047
8.217414,51,-9,-2034
8.227182,64,3,-2016
8.236919,69,-4,-2034
8.246919,62,0,-2038
8.256319,82,12,-2040
8.266453,74,3,-2038
8.276221,62,-4,-2032
8.285959,83,8,-2036
8.295696,76,7,-2031
8.305696,67,10,-2043
8.315464,76,28,-2065
8.325202,66,17,-2054
8.334939,60,1,-2027
8.344707,67,1,-2041
8.354707,64,-4,-2068
8.364445,69,-2,-2047
8.374213,67,7,-2034
8.383951,60,1,-2040
8.393688,53,-2,-2043
8.403688,55,0,-2054
8.413426,80,-2,-2034
8.423194,76,-2,-2034
8.432931,60,0,-2054
8.442669,62,-2,-2041
8.452669,58,1,-2045
8.462437,49,1,-2059
8.472174,51,-9,-2041
8.481912,67,-6,-2032
8.491680,71,1,-2029
8.501680,67,-4,-2025
8.511418,73,-4,-2045
8.521155,78,-2,-2040
8.530893,91,0,-2034
8.540661,87,7,-2045
8.550661,73,10,-2041
8.560398,80,10,-2038
8.570136,78,0,-2036
8.579904,71,5,-2041
8.589641,71,19,-2040
8.599641,64,12,-2036
8.609379,58,5,-2041
8.619147,73,1,-2036
8.628885,73,-4,-2038
8.638622,67,-11,-2029
8.648622,74,-9,-2015
8.658360,80,8,-2040
8.668128,87,16,-2041
8.677865,89,0,-2025
8.687603,69,0,-2027
8.697603,62,10,-2036
8.707371,74,1,-2043
8.717108,83,-4,-2036
8.726846,85,0,-2031
8.736584,73,0,-2038
8.746584,71,1,-2038
8.756352,82,0,-2038
8.766089,82,-2,-2034
8.775827,74,3,-2032
8.785595,74,8,-2045
8.795595,74,1,-2041
8.805332,66,0,-2023
8.815070,73,5,-2023
8.824838,82,7,-2040
8.834576,71,0,-2032
8.844576,73,-2,-2027
8.854313,80,3,-2054
8.864051,76,1,-2047
8.873819,66,-4,-2025
8.883556,64,0,-2045
8.893556,66,7,-2045
8.903294,64,5,-2029
8.913062,67,-8,-2029
8.922799,64,-8,-2025
8.932537,62,3,-2038
8.942537,66,1,-2054
8.952305,64,0,-2032
8.962043,66,7,-2018
8.971780,67,10,-2041
8.981518,69,7,-2047
8.991518,76,3,-2027
9.001286,83,10,-2041
9.011023,83,12,-2054
9.020761,83,7,-2034
9.030529,83,10,-2029
9.040529,73,8,-2034
9.050266,64,1,-2029
9.060004,66,-6,-2029
9.069772,67,-4,-2036
9.079510,73,-4,-2041
9.089510,69,-8,-2038
9.099247,57,1,-2027
9.109015,66,7,-2023
9.118753,74,-2,-2025
9.128490,60,-2,-2038
9.138490,57,7,-2029
9.148258,80,12,-2025
9.157996,96,7,-2043
9.167733,74,5,-2045
9.177502,71,0,-2045
9.187502,89,-4,-2048
9.197239,85,16,-2054
9.206977,73,17,-2052
9.216714,71,7,-2038
9.226482,80,10,-2027
9.236482,85,-2,-2031
9.246220,73,0,-2032
9.255619,64,12,-2034
9.265753,73,5,-2032
9.275522,83,-2,-2022
9.285259,85,-11,-2023
9.295259,64,-11,-2038
9.304997,42,1,-2025
9.314765,58,0,-2018
9.324502,76,0,-2041
9.334240,78,7,-2041
9.344240,67,-2,-2025
9.353977,46,-11,-2034
9.363745,62,5,-2043
9.373483,73,7,-2036
9.383221,71,-8,-2029
9.393221,78,-4,-2031
9.402989,67,3,-2040
9.412726,55,1,-2047
9.422464,64,7,-2034
9.432201,69,12,-2032
9.442201,67,3,-2052
9.451969,73,-6,-2045
9.461707,74,0,-2025
9.471444,73,8,-2034
9.481212,82,10,-2041
9.491212,82,3,-2038
9.500950,64,-4,-2048
9.510688,53,-8,-2047
9.520456,62,1,-2025
9.530193,73,5,-2022
9.540193,69,-8,-2032
9.549931,58,-9,-2029
9.559699,69,0,-2029
9.569436,83,7,-2038
9.579174,76,1,-2036
9.589174,69,0,-2034
9.598942,66,8,-2036
9.608680,67,7,-2032
9.618417,83,10,-2047
9.628185,85,8,-2050
9.638185,69,1,-2027
9.647923,76,12,-2040
9.657660,74,8,-2048
9.667428,66,7,-2047
9.677166,71,16,-2047
9.687166,71,0,-2034
9.696903,69,-6,-2040
9.706671,73,12,-2048
9.716409,76,14,-2045
9.726177,67,-2,-2034
9.736177,53,-2,-2031
9.745915,69,7,-2048
9.755652,71,1,-2061
9.765420,53,-6,-2041
9.775158,60,-4,-2022
9.785158,71,-2,-2045
9.794895,74,5,-2057
9.804663,73,-2,-2029
9.814401,76,-4,-2036
9.824139,74,8,-2061
9.834139,69,5,-2047
9.843876,73,3,-2043
9.853644,73,10,-2047
9.863382,71,1,-2031
9.873119,74,-2,-2027
9.883119,73,12,-2047
9.892887,66,10,-2045
9.902625,66,8,-2040
9.912362,67,14,-2040
9.922100,62,3,-2027
9.932100,64,-4,-2032
9.941868,69,-6,-2038
9.951606,71,0,-2029
9.961343,67,8,-2036
9.971111,58,7,-2047
9.981111,71,5,-2041
9.990849,78,1,-2047
10.000586,66,5,-2066
10.010354,64,5,-2050
10.020092,67,-4,-2029
10.030092,67,0,-2034
10.039829,69,-2,-2036
10.049597,74,-6,-2034
10.059335,76,-6,-2032
10.069073,67,-4,-2027
10.079073,73,0,-2031
10.088841,83,1,-2043
10.098578,82,3,-2038
10.108316,89,10,-2023
10.118053,83,17,-2041
10.128053,69,14,-2063
10.137821,76,5,-2041
10.147559,73,3,-2034
10.157296,71,7,-2048
10.167065,74,0,-2041
10.177065,74,-6,-2034
10.186802,78,-2,-2043
10.196540,67,1,-2057
10.206308,64,5,-2065
10.216045,64,-6,-2048
10.226045,64,-11,-2034
10.235783,71,7,-2054
10.245551,73,3,-2040
10.255288,64,3,-2034
10.265026,64,19,-2045
10.275026,82,3,-2027
10.284794,76,-4,-2025
10.294532,60,-2,-2023
10.304269,71,1,-2034
10.314037,85,7,-2041
10.324037,80,-2,-2027
10.333775,64,5,-2029
10.343512,58,14,-2059
10.353280,67,-8,-2063
10.363018,78,-8,-2022
10.373018,78,7,-2025
10.382755,74,-2,-2031
10.392524,98,-4,-2022
10.402261,92,7,-2047
10.411999,62,1,-2047
10.421999,69,-4,-2031
10.431767,66,3,-2050
10.441504,60,1,-2048
10.451242,80,1,-2038
10.461010,78,8,-2056
10.471010,64,5,-2052
10.480747,69,0,-2036
10.490515,67,1,-2041
10.500253,64,5,-2038
10.509991,67,-6,-2036
10.519991,62,-13,-2034
10.529728,64,0,-2020
10.539496,83,0,-2020
10.549234,83,-6,-2031
10.558971,64,-2,-2040
10.568971,66,-4,-2036
10.578739,73,5,-2031
10.588477,69,10,-2038
10.598245,73,0,-2038
10.607982,80,-4,-2027
10.617982,80,-2,-2032
10.627720,74,0,-2047
10.637488,71,0,-2036
10.647226,64,7,-2038
10.656963,51,17,-2057
10.666963,64,5,-2050
10.676731,87,0,-2034
10.686469,71,7,-2043
10.696206,66,0,-2057
10.705974,74,-2,-2045
10.715974,55,7,-2038
10.725712,57,-2,-2056
10.735450,69,-4,-2047
10.745187,67,7,-2047
10.754955,71,3,-2061
10.764955,69,-4,-2038
10.774693,71,3,-2038
10.784461,71,0,-2052
10.794198,58,0,-2045
10.803936,57,5,-2041
10.813936,73,3,-2043
10.823704,82,5,-2054
10.833441,74,1,-2063
10.843179,73,-6,-2032
10.852917,83,-6,-2015
10.862917,74,-2,-2040
10.872685,53,0,-2041
10.882422,66,7,-2041
10.892190,74,7,-2045
10.901928,60,0,-2041
10.911928,57,5,-2047
10.921665,64,-4,-2036
10.931433,85,-8,-2022
10.941171,91,5,-2043
10.950909,73,8,-2050
10.960909,71,3,-2029
10.970677,67,8,-2048
10.980414,58,3,-2059
10.990152,60,-8,-2034
10.999920,64,1,-2045
11.009920,74,7,-2068
11.019657,78,-2,-2041
11.029395,60,-2,-2020
11.039163,58,-6,-2038
11.048900,69,-9,-2050
11.058900,73,1,-2029
11.068638,80,1,-2018
11.078406,76,-6,-2038
11.088144,74,0,-2045
11.097881,82,1,-2043
11.107881,74,-2,-2048
11.117649,76,17,-2022
11.127387,80,30,-2006
11.137155,73,10,-2027
11.146892,74,5,-2040
11.156892,74,16,-2047
11.166630,80,14,-2045
11.176398,82,0,-2041
11.186136,83,0,-2043
11.195873,85,7,-2031
11.205873,78,0,-2031
11.215641,80,-2,-2054
11.225379,73,1,-2045
11.235116,71,1,-2036
11.244792,73,1,-2043
11.254792,73,5,-2029
11.264651,73,-2,-2031
11.274389,69,-6,-2041
11.284157,73,3,-2043
11.293894,76,5,-2050
11.303894,71,-2,-2029
11.313662,66,-2,-2020
11.323400,71,1,-2045
11.333138,83,5,-2041
11.342906,82,0,-2025
11.352906,73,1,-2054
11.362643,80,14,-2065
11.372381,76,10,-2040
11.382149,57,-6,-2034
11.391886,53,-8,-2029
11.401886,60,-4,-2034
11.411624,64,-8,-2041
11.421392,64,-2,-2034
11.431129,58,-2,-2040
11.440898,71,-9,-2038
11.450898,83,0,-2034
11.460635,67,5,-2048
11.470373,67,10,-2054
11.480141,69,0,-2029
11.489878,69,-9,-2018
11.499878,80,-2,-2029
11.509646,62,-8,-2025
11.519384,67,-11,-2032
11.529121,78,-2,-2052
11.538889,66,1,-2052
11.548889,58,10,-2040
11.558627,69,17,-2034
11.568395,82,5,-2031
11.578133,74,-4,-2023
11.587901,80,-4,-2025
11.597901,83,0,-2034
11.607638,71,1,-2034
11.617406,67,-2,-2029
11.627144,57,3,-2041
11.636912,58,10,-2054
11.646912,71,10,-2041
11.656649,80,1,-2031
11.666418,78,-2,-2034
11.676155,67,-2,-2032
11.685893,67,-11,-2040
11.695893,73,-9,-2052
11.705661,71,1,-2048
11.715398,64,-2,-2040
11.725166,66,5,-2029
11.734904,76,10,-2020
11.744904,80,3,-2031
11.754641,87,3,-2047
11.764410,91,0,-2052
11.774147,87,-8,-2038
11.783915,67,5,-2027
11.793915,49,19,-2043
11.803653,51,5,-2047
11.813421,58,0,-2043
11.823158,64,-8,-2034
11.832896,82,-15,-2034
11.842896,101,-6,-2041
11.852664,89,-15,-2022
11.862401,69,-13,-2015
11.872139,69,7,-2036
11.881907,57,12,-2059
11.891907,53,14,-2056
11.901645,71,8,-2040
11.911413,66,0,-2034
11.921150,62,3,-2029
11.930918,74,7,-2029
11.940918,74,3,-2040
11.950656,74,8,-2043
11.960393,85,12,-2029
11.970161,82,8,-2018
11.979899,76,8,-2031
11.989899,85,5,-2032
11.999667,83,0,-2015
12.009405,80,-4,-2025
12.019142,80,5,-2059
12.028910,57,8,-2059
12.038910,48,8,-2036
12.048648,66,17,-2038
12.058416,57,-6,-2041
12.068153,48,-22,-2027
12.077891,67,-6,-2018
12.087891,71,-9,-2032
12.097659,57,-8,-2041
12.107397,62,0,-2025
12.117165,64,-13,-2031
12.126902,57,-13,-2047
12.136902,67,0,-2038
12.146670,67,-11,-2027
12.156408,74,-15,-2029
12.166145,92,3,-2034
12.175913,89,7,-2032
12.185913,82,12,-2045
12.195651,78,37,-2063
12.205419,78,32,-2040
12.215157,83,0,-2015
12.224894,89,-4,-2040
12.234894,78,5,-2061
12.244662,71,1,-2041
12.254062,78,8,-2022
12.264196,69,0,-2032
12.273964,57,-8,-2052
12.283701,69,10,-2061
12.293701,76,8,-2047
12.303439,66,-8,-2029
12.313207,67,-6,-2045
12.322945,66,-6,-2052
12.332713,49,0,-2027
12.342713,58,0,-2020
12.352450,64,-8,-2043
12.362218,57,-2,-2048
12.371956,74,0,-2022
12.381693,83,-8,-2022
12.391693,73,-6,-2043
12.401462,78,7,-2043
12.411199,69,8,-2040
12.420967,67,0,-2040
12.430705,89,1,-2029
12.440705,91,0,-2029
12.450442,74,-4,-2025
12.460210,71,3,-2020
12.469948,74,8,-2045
12.479716,78,3,-2050
12.489716,74,7,-2034
12.499453,57,17,-2052
12.509191,64,21,-2066
12.518959,67,5,-2034
12.528697,57,-8,-2020
12.538697,64,-2,-2041
12.548465,73,-6,-2038
12.558202,64,-4,-2015
12.567940,60,5,-2029
12.577708,73,1,-2056
12.587708,73,3,-2048
12.597445,66,12,-2031
12.607213,80,0,-2034
12.616951,85,-15,-2023
12.626719,80,-6,-2023
12.636719,73,0,-2045
12.646457,64,-4,-2032
12.656194,67,5,-2027
12.665962,67,0,-2031
12.675700,67,-8,-2029
12.685700,82,7,-2034
12.695468,85,7,-2040
12.705205,73,0,-2034
12.714973,82,-11,-2016
12.724711,82,-15,-2013
12.734711,55,-2,-2023
12.744449,66,3,-2031
12.754217,78,-4,-2036
12.763954,73,1,-2034
12.773722,67,8,-2036
12.783722,64,3,-2034
12.793460,74,5,-2032
12.803228,80,10,-2050
12.812965,71,5,-2054
12.822703,66,0,-2032
12.832703,67,1,-2034
12.842471,76,-2,-2047
12.852209,74,-2,-2041
12.861977,71,1,-2031
12.871714,80,1,-2034
12.881714,69,-2,-2031
12.891452,64,0,-2047
12.901220,76,8,-2072
12.910957,71,10,-2041
12.920725,76,7,-2038
12.930725,83,5,-2045
12.940463,74,1,-2016
12.950201,80,5,-2032
12.959969,78,5,-2048
12.969706,71,1,-2045
12.979706,73,1,-2045
12.989444,69,1,-2032
12.999212,74,10,-2043
13.008949,91,23,-2050
13.018717,76,8,-2036
13.028717,69,-4,-2036
13.038455,80,7,-2041
13.048192,71,0,-2038
13.057961,66,-6,-2036
13.067698,73,0,-2032
13.077698,71,5,-2027
13.087436,71,12,-2040
13.097204,69,3,-2045
13.106941,64,3,-2041
13.116709,74,16,-2045
13.126709,71,10,-2036
13.136447,67,3,-2047
13.146184,82,0,-2052
13.155952,73,0,-2031
13.165690,69,-2,-2018
13.175690,69,-8,-2020
13.185428,66,-8,-2038
13.195196,76,-9,-2036
13.204933,62,-6,-2036
13.214701,51,3,-2052
13.224701,67,3,-2040
13.234439,73,12,-2031
13.244176,82,8,-2040
13.253576,76,5,-2047
13.263741,60,7,-2041
13.273478,71,1,-2025
13.283478,74,-2,-2032
13.293246,69,-6,-2048
13.302984,67,-2,-2041
13.312721,62,0,-2027
13.322489,64,-2,-2029
13.332489,64,1,-2036
13.342227,74,3,-2034
13.351964,74,-2,-2038
13.361702,57,-2,-2027
13.371470,62,0,-2031
13.381470,62,-2,-2056
13.391208,60,-2,-2052
13.400976,74,3,-2047
13.410713,83,-2,-2032
13.420451,83,0,-2020
13.430451,89,14,-2036
13.440219,91,3,-2038
13.449956,80,0,-2031
13.459694,83,16,-2032
13.469462,80,7,-2034
13.479462,73,-4,-2031
13.489200,76,3,-2032
13.498937,64,-6,-2036
13.508705,73,-4,-2041
13.518443,80,3,-2040
13.528443,69,-8,-2032
13.538211,69,-6,-2038
13.547948,66,3,-2040
13.557686,74,-2,-2031
13.567454,74,-4,-2015
13.577454,58,0,-2022
13.587191,62,-2,-2048
13.596929,73,5,-2043
13.606697,67,5,-2040
13.616435,64,1,-2041
13.626435,78,12,-2034
13.636172,87,10,-2040
13.645940,73,1,-2050
13.655678,69,0,-2038
13.665446,76,0,-2025
13.675446,82,8,-2043
13.685183,91,10,-2056
13.694921,71,-4,-2038
13.704689,53,-9,-2018
13.714427,76,0,-2016
13.724427,87,8,-2034
13.734164,73,-4,-2032
13.743932,71,-11,-2011
13.753670,66,1,-2040
13.763438,55,10,-2066
13.773438,69,1,-2052
13.783175,76,-8,-2059
13.792913,73,-4,-2040
13.802681,69,-2,-2018
13.812419,69,0,-2040
13.822419,83,3,-2043
13.832156,82,-8,-2032
13.841924,73,-2,-2025
13.851662,76,3,-2036
13.861430,76,-4,-2040
13.871430,78,7,-2036
13.881167,80,8,-2043
13.890905,82,-2,-2025
13.900673,78,5,-2011
13.910410,71,8,-2025
13.920410,71,3,-2050
13.930148,69,-2,-2054
13.939916,66,-9,-2025
13.949654,73,-4,-2027
13.959391,76,7,-2034
13.969391,82,10,-2031
13.979159,85,5,-2057
13.988897,73,0,-2059
13.998634,67,1,-2041
14.008402,66,3,-2056
14.018402,58,1,-2057
14.028140,64,3,-2038
14.037878,76,5,-2045
14.047646,78,0,-2041
14.057383,78,-2,-2027
14.067383,69,0,-2040
14.077121,67,-9,-2040
14.086858,78,-6,-2038
14.096626,69,5,-2050
14.106364,67,7,-2029
14.116364,73,8,-2020
14.126101,66,5,-2047
14.135869,76,-6,-2041
14.145607,76,-4,-2036
14.155345,69,5,-2052
14.165345,78,5,-2050
14.175082,69,3,-2052
14.184850,74,0,-2047
14.194588,85,-8,-2020
14.204325,67,-4,-2020
14.214325,69,5,-2045
14.224093,85,7,-2048
14.233831,82,0,-2041
14.243568,66,-2,-2043
14.253337,62,0,-2048
14.263337,76,-2,-2047
14.273074,82,-2,-2052
14.282812,74,7,-2048
14.292580,69,7,-2032
14.302317,73,-8,-2027
14.312317,74,-13,-2029
14.322055,73,8,-2036
14.331823,73,17,-2032
14.341560,78,7,-2029
14.351298,98,7,-2040
14.361298,91,10,-2047
14.371066,66,10,-2045
14.380804,71,10,-2038
14.390541,66,1,-2032
14.400309,57,-4,-2034
14.410309,66,1,-2038
14.420047,67,0,-2048
14.429784,67,-2,-2050
14.439522,76,-2,-2029
14.449290,76,3,-2022
14.459290,67,5,-2034
14.469027,64,-2,-2038
14.478765,67,-2,-2040
14.488533,76,0,-2038
14.498271,80,1,-2032
14.508271,76,5,-2040
14.518008,78,7,-2040
14.527776,69,1,-2022
14.537514,64,1,-2032
14.547251,78,10,-2040
14.557251,71,3,-2032
14.567019,66,1,-2056
14.576757,82,5,-2045
14.586494,69,0,-2023
14.596263,64,7,-2036
14.606263,80,7,-2040
14.616000,76,-2,-2027
14.625768,73,-2,-2013
14.635506,67,-6,-2020
14.645243,57,-6,-2043
14.655243,66,-2,-2047
14.664981,74,-4,-2031
14.674749,67,1,-2032
14.684486,64,-2,-2052
14.694254,66,-17,-2041
14.704254,73,-9,-2018
14.713992,80,-6,-2027
14.723730,78,-4,-2023
14.733498,80,5,-2025
14.743235,80,1,-2045
14.753235,64,1,-2048
14.762973,69,3,-2045
14.772710,83,5,-2034
14.782478,69,8,-2036
14.792216,66,1,-2054
14.802216,73,-4,-2047
14.811984,57,1,-2031
14.821722,64,1,-2034
14.831459,85,-6,-2041
14.841227,85,5,-2040
14.851227,80,16,-2040
14.860965,69,-2,-2048
14.870702,80,-2,-2038
14.880470,82,5,-2022
14.890208,64,-2,-2034
14.900208,58,0,-2056
14.909945,57,3,-2072
14.919713,58,0,-2061
14.929451,62,-4,-2029
14.939189,71,3,-2040
14.949189,78,7,-2052
14.958957,66,-6,-2041
14.968694,67,-2,-2047
14.978432,76,7,-2043
14.988200,67,-2,-2040
14.998200,66,-2,-2045
15.007937,76,-4,-2036
15.017675,73,-2,-2038
15.027443,69,5,-2057
15.037180,71,7,-2057
15.047180,69,5,-2034
15.056918,76,0,-2034
15.066656,76,-2,-2043
15.076424,64,-4,-2048
15.086161,69,-2,-2050
15.096161,71,0,-2032
15.105899,55,-8,-2036
15.115667,55,-9,-2050
15.125404,66,-4,-2047
15.135142,73,-2,-2036
15.145142,76,1,-2032
15.154910,69,5,-2036
15.164648,69,1,-2031
15.174385,74,-4,-2032
15.184153,67,1,-2040
15.194153,66,1,-2034
15.203891,74,-2,-2045
15.213628,78,12,-2056
15.223396,76,12,-2041
15.233134,74,0,-2036
15.243134,74,3,-2047
15.253603,80,12,-2045
15.262669,82,17,-2036
15.272406,74,8,-2041
15.282144,69,-4,-2047
15.291912,66,-6,-2036
15.301912,66,0,-2034
15.311649,69,-2,-2047
15.321387,71,0,-2052
15.331155,74,3,-2043
15.340893,71,-2,-2038
15.350893,85,8,-2022
15.360630,96,16,-2027
15.370398,76,3,-2054
15.380136,69,5,-2040
15.389873,87,8,-2018
15.399873,89,3,-2032
15.409641,80,1,-2043
15.419379,85,0,-2029
15.429147,82,-2,-2036
15.438885,67,5,-2061
15.448885,71,7,-2048
15.458622,73,-4,-2032
15.468390,64,-8,-2040
15.478128,62,0,-2041
15.487865,71,0,-2032
15.497865,71,-9,-2034
15.507633,60,-11,-2047
15.517371,71,-2,-2041
15.527139,80,0,-2045
15.536877,66,-4,-2045
15.546877,67,5,-2031
15.556614,76,10,-2034
15.566382,76,-2,-2038
15.576120,73,1,-2036
15.585857,64,8,-2036
15.595857,66,-6,-2029
15.605625,80,5,-2032
15.615363,82,12,-2054
15.625100,66,-4,-2048
15.634868,58,-8,-2023
15.644868,67,-2,-2032
15.654606,80,1,-2048
15.664344,74,3,-2040
15.674112,55,8,-2054
15.683849,58,8,-2054
15.693849,74,0,-2031
15.703587,66,-4,-2038
15.713355,64,3,-2032
15.723092,73,12,-2023
15.732830,73,7,-2038
15.742830,71,5,-2048
15.752598,78,7,-2052
15.762336,92,0,-2043
15.772073,85,3,-2025
15.781841,60,5,-2034
15.791841,62,-6,-2034
15.801579,83,1,-2022
15.811316,74,3,-2029
15.821084,82,-2,-2018
15.830822,99,5,-2013
15.840822,73,5,-2032
15.850590,62,1,-2032
15.860327,74,0,-2031
15.870065,71,0,-2050
15.879803,66,-6,-2038
15.889803,73,-11,-2007
15.899571,78,0,-2036
15.909308,76,7,-2065
15.919046,66,1,-2048
15.928814,71,3,-2036
15.938814,78,1,-2032
15.948551,66,-6,-2029
15.958289,64,-4,-2034
15.968057,73,-2,-2045
15.977795,76,0,-2047
15.987795,73,12,-2047
15.997532,64,12,-2045
16.007300,71,-4,-2029
16.017038,71,-2,-2022
16.026775,67,3,-2043
16.036775,69,5,-2050
16.046543,64,14,-2032
16.056281,82,10,-2043
16.066018,82,-4,-2047
16.075786,60,0,-2025
16.085786,64,8,-2027
16.095524,74,5,-2032
16.105262,85,3,-2029
16.115030,80,10,-2045
16.124767,67,5,-2047
16.134767,74,-4,-2029
16.144505,73,1,-2027
16.154273,74,12,-2029
16.164010,82,10,-2038
16.173748,67,1,-2038
16.183748,55,-2,-2029
16.193516,62,1,-2043
16.203253,69,-2,-2038
16.213022,89,-2,-2036
16.222759,87,3,-2048
16.232759,66,7,-2045
16.242497,80,7,-2036
16.251896,78,3,-2020
16.262061,58,17,-2031
16.271798,66,16,-2047
16.281536,71,-6,-2025
16.291536,69,-8,-2022
16.301304,62,-6,-2031
16.311042,58,0,-2036
16.320779,69,3,-2031
16.330547,64,-6,-2018
16.340547,55,-2,-2032
16.350285,71,1,-2056
16.360022,80,0,-2048
16.369790,67,5,-2027
16.379190,71,0,-2031
16.389324,76,-4,-2043
16.399324,74,12,-2029
16.409062,69,7,-2025
16.418830,62,-13,-2027
16.428567,66,-9,-2016
16.438305,69,7,-2029
16.448305,76,1,-2041
16.458073,71,-4,-2032
16.467810,67,0,-2027
16.477548,92,-15,-2029
16.487316,92,-13,-2032
16.497316,71,7,-2029
16.507054,76,8,-2027
16.516791,76,0,-2031
16.526559,73,-6,-2041
16.536297,71,0,-2047
16.546297,60,-2,-2029
16.556034,69,3,-2027
16.565802,80,16,-2034
16.575540,78,8,-2025
16.585277,73,3,-2027
16.595277,64,10,-2022
16.605045,69,7,-2023
16.614783,87,12,-2045
16.624521,92,12,-2032
16.634289,85,1,-2025
16.644289,76,3,-2045
16.654026,76,1,-2032
16.663764,76,-2,-2023
16.673501,62,1,-2041
16.683269,60,5,-2041
16.693269,74,8,-2023
16.703007,78,3,-2031
16.712744,67,-8,-2031
16.722513,64,-4,-2018
16.732250,76,12,-2043
16.742250,74,5,-2054
16.751988,73,0,-2036
16.761756,78,5,-2047
16.771493,71,-4,-2038
16.781231,73,-8,-2025
16.791231,66,5,-2040
16.800999,62,8,-2032
16.810736,74,3,-2027
16.820474,73,0,-2036
16.830212,62,1,-2047
16.840212,60,3,-2034
16.849980,69,0,-2015
16.859717,69,-4,-2022
16.869485,67,3,-2038
16.879223,67,1,-2045
16.889223,71,-2,-2031
16.898960,80,1,-2029
16.908698,80,-4,-2041
16.918466,80,-9,-2043
16.928203,80,5,-2038
16.938203,74,12,-2018
16.947941,66,-2,-2023
16.957709,64,3,-2054
16.967447,67,10,-2047
16.977215,67,1,-2027
16.987215,66,3,-2032
16.996952,64,-6,-2034
17.006690,67,-8,-2031
17.016458,69,3,-2038
17.026195,73,0,-2052
17.036195,78,-4,-2057
17.045933,76,8,-2057
17.055701,74,5,-2050
17.065439,69,0,-2057
17.075176,62,12,-2077
17.085176,64,10,-2057
17.094944,69,-4,-2036
17.104682,69,3,-2047
17.114419,76,5,-2048
17.124187,78,3,-2043
17.134187,67,7,-2045
17.143925,55,0,-2031
17.153662,62,10,-2032
17.163400,76,10,-2038
17.173168,80,-6,-2031
17.183168,87,-4,-2034
17.192906,80,0,-2023
17.202674,66,12,-2015
17.212411,78,14,-2027
17.222149,82,7,-2038
17.232149,73,14,-2040
17.241917,74,14,-2041
17.251316,73,7,-2045
17.261451,71,8,-2043
17.271188,67,10,-2036
17.280956,66,7,-2031
17.290956,74,7,-2038
17.300694,67,7,-2040
17.310431,67,3,-2029
17.320199,82,-6,-2029
17.329937,67,-9,-2029
17.339937,55,1,-2031
17.349705,76,1,-2032
17.359442,82,-17,-2020
17.369180,66,-11,-2027
17.378948,74,5,-2043
17.388948,76,0,-2045
17.398686,58,-8,-2045
17.408454,66,0,-2036
17.418191,83,3,-2040
17.427929,76,-2,-2048
17.437929,71,0,-2048
17.447697,78,-4,-2043
17.457434,74,-4,-2036
17.467202,73,1,-2034
17.476940,87,1,-2036
17.486940,80,3,-2032
17.496678,64,5,-2040
17.506446,73,0,-2041
17.516183,89,1,-2034
17.525921,83,3,-2032
17.535921,69,-4,-2031
17.545658,71,-2,-2045
17.555426,67,8,-2057
17.565164,60,5,-2045
17.574901,66,-6,-2032
17.584901,67,3,-2038
17.594670,74,8,-2047
17.604407,74,-2,-2050
17.614145,71,-4,-2036
17.623913,67,-2,-2040
17.633913,62,5,-2045
17.643650,71,8,-2023
17.653388,69,3,-2027
17.663156,66,1,-2041
17.672893,76,-6,-2029
17.682893,80,-8,-2023
17.692661,83,8,-2025
17.702399,78,10,-2036
17.712137,73,1,-2048
17.721905,80,1,-2034
17.731905,73,0,-2022
17.741642,71,0,-2036
17.751410,83,-6,-2043
17.761148,85,-4,-2038
17.770885,69,1,-2027
17.780885,62,1,-2034
17.790653,73,3,-2048
17.800391,74,3,-2032
17.810128,73,-2,-2032
17.819897,62,-6,-2047
17.829897,64,5,-2022
17.839634,82,10,-2018
17.849402,80,1,-2045
17.859140,60,-6,-2054
17.868877,69,-2,-2050
17.878877,91,12,-2041
17.888645,73,1,-2040
17.898383,58,-4,-2038
17.908120,71,-2,-2031
17.917889,78,-8,-2032
17.927889,71,1,-2032
17.937626,64,1,-2027
17.947364,73,-6,-2029
17.957132,85,3,-2040
17.966869,87,12,-2043
17.976869,73,0,-2040
17.986637,73,5,-2040
17.996375,78,3,-2052
18.006112,62,-8,-2056
18.015880,58,-2,-2047
18.025880,69,7,-2034
18.035618,71,5,-2020
18.045356,73,-2,-2034
18.055124,66,0,-2061
18.064861,64,0,-2054
18.074861,66,-2,-2040
18.084599,58,0,-2041
18.094367,60,3,-2041
18.104104,62,5,-2040
18.113872,60,1,-2038
18.123872,64,3,-2043
18.133610,64,1,-2032
18.143347,71,3,-2025
18.153116,76,5,-2048
18.162853,66,3,-2052
18.172853,67,10,-2038
18.182591,74,3,-2038
18.192359,76,-2,-2047
18.202096,76,1,-2038
18.211834,73,0,-2029
18.221834,78,1,-2045
18.231602,74,-2,-2034
18.241339,62,3,-2016
18.250739,73,10,-2027
18.260873,78,-2,-2015
18.270641,57,-11,-2013
18.280641,67,5,-2041
18.290379,82,7,-2041
18.300116,57,-6,-2023
18.309884,67,7,-2036
18.319622,85,10,-2043
18.329622,64,-8,-2027
18.339390,74,-2,-2025
18.349128,85,5,-2043
18.358865,62,-2,-2034
18.368633,69,-2,-2027
18.378633,76,1,-2025
18.388371,74,-2,-2020
18.398108,76,-4,-2043
18.407876,78,-2,-2048
18.417614,71,-2,-2041
18.427614,58,1,-2059
18.437382,66,5,-2036
18.447119,74,0,-2016
18.456857,71,-2,-2038
18.466625,69,1,-2045
18.476625,80,-2,-2043
18.486363,83,0,-2036
18.496131,66,-2,-2036
18.505868,73,-2,-2048
18.515606,78,7,-2045
18.525606,66,3,-2048
18.535374,71,5,-2043
18.545111,73,8,-2025
18.554879,71,5,-2036
18.564617,69,-2,-2043
18.574617,58,-4,-2032
18.584385,62,10,-2032
18.594123,69,7,-2038
18.603860,76,0,-2041
18.613628,78,3,-2029
18.623628,66,-2,-2027
18.633366,71,5,-2052
18.643134,85,7,-2054
18.652871,71,-2,-2040
18.662609,64,-2,-2034
18.672609,66,5,-2048
18.682377,66,8,-2066
18.692115,80,5,-2036
18.701883,76,7,-2018
18.711620,62,1,-2036
18.721620,64,-2,-2034
18.731358,76,7,-2031
18.741126,80,0,-2029
18.750863,78,0,-2031
18.760631,74,7,-2045
18.770631,69,-2,-2045
18.780369,69,-4,-2034
18.790107,73,0,-2048
18.799875,73,-4,-2054
18.809612,69,-2,-2027
18.819612,66,3,-2025
18.829380,69,-2,-2043
18.839118,64,1,-2034
18.848886,62,8,-2025
18.858623,73,7,-2048
18.868623,78,7,-2052
18.878361,89,3,-2038
18.888129,94,7,-2043
18.897867,73,10,-2041
18.907635,73,12,-2034
18.917635,91,8,-2040
18.927372,80,3,-2032
18.937110,74,1,-2048
18.946878,76,-2,-2057
18.956615,73,-6,-2027
18.966615,73,5,-2031
18.976383,76,3,-2048
18.986121,78,-6,-2045
18.995858,73,-2,-2040
19.005627,62,0,-2036
19.015627,51,3,-2036
19.025364,67,5,-2036
19.035132,89,3,-2043
19.044870,80,0,-2036
19.054607,64,3,-2032
19.064607,69,7,-2056
19.074375,83,5,-2047
19.084113,76,5,-2023
19.093850,66,1,-2040
19.103618,73,-2,-2047
19.113618,85,8,-2040
19.123356,76,1,-2043
19.133124,69,-4,-2040
19.142862,82,5,-2043
19.152599,80,0,-2045
19.162599,73,-2,-2029
19.172367,71,-2,-2036
19.182105,64,-2,-2054
19.191873,71,0,-2036
19.201610,69,-2,-2031
19.211610,64,-2,-2040
19.221348,89,1,-2032
19.231116,83,5,-2047
19.240854,60,0,-2040
19.250253,74,1,-2023
19.260387,71,16,-2040
19.270387,55,16,-2041
19.280155,62,1,-2045
19.289893,69,0,-2047
19.299661,67,10,-2031
19.309399,80,8,-2027
19.319399,91,-6,-2038
19.329167,83,1,-2052
19.338904,67,10,-2052
19.348672,69,-13,-2036
19.358410,71,-17,-2036
19.368410,67,5,-2041
19.378178,71,0,-2041
19.387915,74,3,-2050
19.397653,78,5,-2048
19.407421,73,0,-2041
19.417421,71,10,-2034
19.427159,74,12,-2029
19.436927,71,12,-2045
19.446664,80,8,-2038
19.456432,69,-6,-2022
19.466432,53,-2,-2031
19.476170,71,0,-2023
19.485938,71,-2,-2013
19.495675,69,0,-2031
19.505443,82,3,-2054
19.515443,66,5,-2054
19.525181,62,-11,-2036
19.534919,82,-4,-2025
19.544687,64,12,-2034
19.554424,64,1,-2038
19.564424,80,-8,-2029
19.574192,60,-2,-2029
19.583930,58,1,-2032
19.593698,71,3,-2043
19.603435,74,10,-2045
19.613435,89,14,-2041
19.623203,80,7,-2056
19.632941,73,-2,-2048
19.642679,73,0,-2032
19.652447,66,0,-2038
19.662447,60,-2,-2040
19.672184,57,1,-2032
19.681952,74,-4,-2029
19.691690,82,-13,-2032
19.701458,71,-2,-2048
19.711458,73,-2,-2047
19.721195,73,-9,-2027
19.730933,71,3,-2041
19.740701,64,1,-2063
19.750439,64,-9,-2041
19.760439,73,0,-2029
19.770207,71,-4,-2043
19.779944,64,-9,-2047
19.789712,64,1,-2052
19.799450,67,10,-2050
19.809450,73,8,-2041
19.819218,82,7,-2048
19.828955,87,7,-2052
19.838693,76,3,-2047
19.848461,71,3,-2041
19.858461,78,5,-2034
19.868199,71,3,-2041
19.877967,64,1,-2047
19.887704,64,1,-2041
19.897472,66,0,-2047
19.907472,71,-2,-2052
19.917210,71,7,-2054
19.926947,78,8,-2052
19.936715,80,-4,-2040
19.946453,66,0,-2034
19.956453,64,8,-2034
19.966221,73,0,-2025
19.975959,71,0,-2040
19.985696,69,10,-2068
19.995464,71,10,-2054
20.005464,69,3,-2023
20.015202,67,-2,-2043
20.024939,73,3,-2057
20.034707,76,8,-2048
20.044445,78,-2,-2029
20.054445,80,8,-2023
20.064213,82,21,-2054
20.073951,74,3,-2036
20.083719,73,-6,-2011
20.093456,78,-2,-2031
20.103456,69,-2,-2036
20.113224,60,1,-2041
20.122962,69,3,-2047
20.132699,71,8,-2031
20.142467,58,1,-2015
20.152467,64,-6,-2022
20.162205,78,-4,-2041
20.171973,67,-2,-2043
20.181711,60,1,-2034
20.191479,69,5,-2029
20.201479,64,0,-2038
20.211216,67,3,-2045
20.220954,66,5,-2027
20.230722,55,8,-2040
20.240459,64,10,-2057
20.250459,74,5,-2036
20.260227,78,8,-2029
20.269965,78,7,-2036
20.279702,80,8,-2038
20.289471,71,12,-2041
20.299471,66,3,-2045
20.309208,71,7,-2045
20.318976,69,8,-2032
20.328714,60,1,-2041
20.338451,71,5,-2047
20.348451,89,0,-2048
20.358219,82,-8,-2063
20.367957,73,0,-2038
20.377725,74,-2,-2018
20.387462,66,-4,-2034
20.397462,74,0,-2043
20.407200,76,-2,-2043
20.416968,62,1,-2027
20.426706,69,3,-2032
20.436474,76,5,-2057
20.446474,69,3,-2047
20.456211,73,1,-2023
20.465949,71,-4,-2018
20.475717,67,-15,-2029
20.485454,67,-6,-2025
20.495454,76,1,-2015
20.505222,80,-9,-2023
20.514960,66,1,-2048
20.524698,67,7,-2048
20.534435,76,-4,-2040
20.544435,71,10,-2043
20.554203,69,17,-2029
20.563941,66,-2,-2029
20.573709,66,-6,-2043
20.583446,73,3,-2034
20.593446,76,-2,-2034
20.603214,73,-2,-2041
20.612952,73,1,-2029
20.622690,69,0,-2029
20.632458,58,-2,-2041
20.642458,64,0,-2040
20.652195,64,5,-2050
20.661963,67,3,-2050
20.671701,69,1,-2022
20.681438,69,8,-2027
20.691438,76,7,-2050
20.701206,71,-4,-2031
20.710944,80,5,-2023
20.720712,82,8,-2048
20.730450,60,-4,-2052
20.740450,60,3,-2047
20.750218,67,16,-2043
20.759955,73,12,-2032
20.769693,73,-4,-2027
20.779461,69,-6,-2023
20.789461,74,1,-2032
20.799198,74,0,-2041
20.808936,62,-2,-2038
20.818704,67,0,-2040
20.828441,78,-4,-2047
20.838441,66,0,-2041
20.848179,60,7,-2022
20.857947,64,3,-2038
20.867685,64,-2,-2056
20.877422,76,3,-2034
20.887422,85,8,-2032
20.897190,82,3,-2043
20.906928,71,12,-2041
20.916665,74,16,-2034
20.926433,74,0,-2023
20.936433,66,1,-2027
20.946171,74,8,-2038
20.955939,87,8,-2036
20.965677,73,3,-2045
20.975414,64,3,-2048
20.985414,76,8,-2036
20.995182,73,10,-2054
21.004920,78,16,-2056
21.014688,89,3,-2031
21.024425,74,-4,-2034
21.034425,57,8,-2050
21.044163,64,5,-2052
21.053931,69,-2,-2038
21.063669,71,7,-2032
21.073406,82,3,-2040
21.083406,80,-4,-2036
21.093174,78,3,-2029
21.102912,78,3,-2032
21.112680,69,-8,-2023
21.122417,66,5,-2031
21.132417,69,19,-2052
21.142185,76,3,-2038
21.151923,74,-4,-2027
21.161660,73,5,-2050
21.171429,73,1,-2057
21.181429,58,1,-2038
21.191166,64,3,-2022
21.200904,83,1,-2025
21.210672,83,3,-2038
21.220409,78,1,-2045
21.230409,71,-8,-2038
21.240147,66,-6,-2025
21.249944,73,0,-2031
21.259682,73,-4,-2029
21.269419,71,-6,-2025
21.279419,74,-2,-2041
21.289187,51,0,-2047
21.298925,51,8,-2038
21.308662,74,5,-2041
21.318430,66,-8,-2032
21.328430,66,3,-2038
21.338168,83,8,-2052
21.347936,66,-2,-2036
21.357674,55,3,-2041
21.367411,82,17,-2059
21.377411,78,14,-2041
21.387179,62,1,-2023
21.396917,73,-2,-2032
21.406654,76,-2,-2045
21.416422,76,-2,-2036
21.426422,80,5,-2036
21.436160,71,1,-2045
21.445928,62,-6,-2040
21.455666,60,8,-2038
21.465403,80,19,-2048
21.475403,85,8,-2050
21.485171,66,-4,-2036
21.494909,78,0,-2040
21.504646,74,-2,-2047
21.514414,60,-6,-2036
21.524414,73,3,-2040
21.534152,74,3,-2045
21.543889,74,0,-2043
21.553658,71,3,-2057
21.563395,67,1,-2045
21.573395,78,-2,-2020
21.583163,74,3,-2032
21.592901,74,5,-2034
21.602638,74,3,-2040
21.612406,71,10,-2057
21.622406,82,3,-2045
21.632144,82,-4,-2034
21.641881,80,10,-2038
21.651649,87,7,-2031
21.661387,80,-6,-2027
21.671387,74,1,-2045
21.681125,73,1,-2057
21.690893,57,-2,-2027
21.700630,67,-2,-2022
21.710398,78,3,-2056
21.720398,69,3,-2054
21.730136,76,3,-2047
21.739873,76,3,-2036
21.749641,73,-4,-2013
21.759379,71,-4,-2032
21.769379,64,1,-2065
21.779117,67,10,-2054
21.788885,74,7,-2034
21.798622,73,0,-2032
21.808360,74,7,-2032
21.818360,76,7,-2023
21.828128,73,0,-2020
21.837865,87,0,-2047
21.847603,91,-4,-2061
21.857371,80,3,-2050
21.867371,78,8,-2041
21.877108,64,1,-2040
21.886846,62,0,-2045
21.896614,76,1,-2045
21.906352,71,-6,-2031
21.916352,60,-11,-2023
21.926089,64,-2,-2029
21.935857,73,7,-2029
21.945595,73,0,-2032
21.955363,69,-4,-2040
21.965363,74,5,-2032
21.975100,78,3,-2025
21.984868,66,-2,-2023
21.994606,60,3,-2027
22.004344,66,0,-2047
22.014344,64,5,-2048
22.024112,71,10,-2029
22.033849,80,5,-2029
22.043617,80,3,-2038
22.053355,76,8,-2041
22.063355,78,12,-2041
22.073123,80,12,-2029
22.082860,66,14,-2029
22.092628,73,10,-2034
22.102366,80,0,-2023
22.112366,62,3,-2029
22.122104,71,10,-2048
22.131872,71,1,-2048
22.141609,57,-2,-2045
22.151377,71,0,-2052
22.161377,80,-4,-2038
22.171115,80,0,-2023
22.180852,78,0,-2048
22.190620,60,1,-2061
22.200358,64,10,-2045
22.210358,82,1,-2038
22.220126,78,1,-2045
22.229864,78,12,-2045
22.239601,76,3,-2040
22.249031,74,1,-2041
22.259165,85,10,-2041
22.269165,82,3,-2047
22.278903,69,3,-2041
22.288671,80,7,-2045
22.298409,85,7,-2066
22.308177,62,8,-2050
22.318177,64,7,-2027
22.327914,80,14,-2045
22.337652,73,3,-2050
22.347420,73,-8,-2034
22.357157,76,7,-2041
22.367157,74,7,-2052
22.376925,76,5,-2036
22.386663,66,3,-2020
22.396400,64,-2,-2025
22.406169,76,-2,-2032
22.416169,60,-6,-2027
22.425906,55,7,-2031
22.435674,85,17,-2052
22.445412,94,10,-2043
22.455180,73,7,-2036
22.465180,66,5,-2054
22.474917,76,0,-2045
22.484655,91,1,-2027
22.494423,92,3,-2032
22.504160,73,1,-2048
22.514160,69,5,-2054
22.523929,76,3,-2043
22.533666,76,-2,-2025
22.543434,73,-4,-2040
22.553172,71,5,-2047
22.563172,78,12,-2029
22.572940,82,7,-2040
22.582677,73,-4,-2034
22.592445,66,3,-2025
22.602183,69,0,-2038
22.612183,78,-6,-2041
22.621920,80,7,-2047
22.631689,74,3,-2052
22.641426,74,1,-2038
22.651194,74,12,-2043
22.661194,67,3,-2061
22.670932,60,-2,-2040
22.680700,73,1,-2034
22.690437,87,-6,-2027
22.700175,74,-9,-2016
22.710175,60,5,-2048
22.719943,69,5,-2056
22.729680,76,1,-2036
22.739449,62,3,-2036
22.749186,66,-2,-2038
22.759186,82,-2,-2040
22.768924,74,0,-2032
22.778692,62,0,-2031
22.788429,60,-2,-2027
22.798197,73,-4,-2023
22.808197,74,0,-2036
22.817935,62,1,-2047
22.827672,69,-2,-2045
22.837441,82,0,-2032
22.847178,80,-2,-2027
22.857178,71,-4,-2027
22.866946,74,1,-2025
22.876684,82,5,-2056
22.886421,69,0,-2057
22.896189,67,-2,-2032
22.906189,73,3,-2038
22.915927,62,1,-2040
22.925664,64,0,-2040
22.935432,74,-4,-2043
22.945170,74,0,-2040
22.955170,62,1,-2048
22.964938,60,-2,-2047
22.974676,66,3,-2032
22.984413,78,-6,-2029
22.994181,80,-11,-2023
23.004181,67,1,-2027
23.013919,66,-2,-2043
23.023656,67,0,-2047
23.033424,67,10,-2047
23.043162,67,10,-2045
23.053162,74,8,-2038
23.062930,82,5,-2027
23.072668,85,3,-2016
23.082436,83,7,-2027
23.092173,80,10,-2038
23.102173,76,1,-2029
23.111911,71,1,-2036
23.121679,71,16,-2050
23.131416,58,1,-2027
23.141154,62,-8,-2016
23.151154,80,7,-2036
23.160922,80,0,-2034
23.170660,76,-2,-2036
23.180428,69,0,-2032
23.190165,66,7,-2036
23.200165,66,12,-2054
23.209903,67,0,-2038
23.219671,78,7,-2027
23.229408,80,16,-2036
23.239146,71,-6,-2041
23.249146,66,-2,-2043
23.258545,73,8,-2047
23.268710,73,-4,-2050
23.278448,73,-6,-2048
23.288185,80,1,-2041
23.297953,76,-4,-2031
23.307953,66,3,-2031
23.317691,71,3,-2025
23.327459,91,1,-2036
23.337196,80,7,-2054
23.346934,83,-8,-2032
23.356934,108,-9,-2023
23.366702,76,0,-2038
23.376440,55,0,-2041
23.386177,76,1,-2043
23.395945,73,5,-2038
23.405945,67,10,-2036
23.415683,80,12,-2050
23.425451,78,8,-2052
23.435188,74,1,-2040
23.444926,74,1,-2038
23.454926,69,5,-2043
23.464694,73,-2,-2041
23.474431,62,-4,-2034
23.484200,53,1,-2040
23.493937,60,-8,-2034
23.503937,66,-6,-2031
23.513675,73,5,-2057
23.523443,66,1,-2043
23.533180,49,-4,-2013
23.542948,69,-4,-2022
23.552948,89,1,-2036
23.562686,73,0,-2040
23.572423,64,-9,-2036
23.582191,67,-6,-2040
23.591929,82,0,-2045
23.601929,82,1,-2040
23.611667,60,0,-2031
23.621435,64,-13,-2022
23.631172,73,1,-2034
23.640940,80,32,-2054
23.650940,74,23,-2048
23.660678,64,5,-2045
23.670415,80,16,-2045
23.680183,78,12,-2040
23.689921,69,0,-2034
23.699921,74,3,-2032
23.709689,66,-4,-2023
23.719427,53,-11,-2013
23.729195,60,0,-2027
23.738932,69,1,-2032
23.748932,82,0,-2022
23.758670,89,7,-2034
23.768438,67,5,-2045
23.778175,67,1,-2034
23.787913,78,3,-2043
23.797913,69,-4,-2054
23.807681,78,0,-2040
23.817419,85,10,-2041
23.827187,74,7,-2056
23.836924,69,3,-2063
23.846924,71,3,-2050
23.856662,76,-2,-2027
23.866430,71,0,-2032
23.876167,71,1,-2040
23.885935,69,5,-2043
23.895935,64,1,-2052
23.905673,73,-4,-2052
23.915410,74,5,-2047
23.925179,62,1,-2032
23.934916,71,-4,-2025
23.944916,80,0,-2036
23.954684,73,-9,-2034
23.964422,71,-6,-2041
23.974159,66,8,-2045
23.983927,58,3,-2031
23.993927,66,-9,-2034
24.003665,74,-9,-2036
24.013433,62,-2,-2047
24.023170,64,0,-2059
24.032908,71,0,-2038
24.042908,67,5,-2043
24.052676,74,16,-2052
24.062414,80,5,-2022
24.072182,73,-2,-2027
24.081919,73,7,-2047
24.091919,73,0,-2027
24.101657,69,-2,-2034
24.111425,74,10,-2052
24.121162,64,8,-2041
24.130900,62,-2,-2031
24.140900,74,-2,-2036
24.150668,74,0,-2045
24.160406,66,-4,-2040
24.170143,66,3,-2038
24.179911,74,12,-2022
24.189911,66,8,-2013
24.199649,60,0,-2036
24.209417,73,-4,-2040
24.219154,67,3,-2040
24.228892,60,3,-2045
24.238892,73,0,-2032
24.248660,82,7,-2034
24.258398,74,3,-2052
24.268135,71,8,-2059
24.277903,71,7,-2041
24.287903,69,-6,-2034
24.297641,76,3,-2040
24.307378,73,5,-2041
24.317146,78,8,-2048
24.326884,83,7,-2045
24.336884,66,-4,-2029
24.346621,74,10,-2027
24.356389,82,5,-2031
24.366127,73,-13,-2032
24.375865,66,-6,-2032
24.385865,58,5,-2031
24.395633,66,7,-2029
24.405370,71,-8,-2032
24.415108,66,-9,-2036
24.424845,64,0,-2031
24.434845,71,1,-2038
24.444613,78,7,-2043
24.454351,71,3,-2036
24.464088,66,10,-2054
24.473857,67,14,-2056
24.483857,67,0,-2018
24.493594,64,-4,-2020
24.503332,64,-6,-2036
24.513100,78,-6,-2045
24.522837,82,7,-2057
24.532837,74,7,-2043
24.542575,76,1,-2029
24.552343,74,10,-2029
24.562080,69,3,-2040
24.571818,62,-6,-2040
24.581818,62,5,-2032
24.591586,67,7,-2036
24.601324,80,0,-2025
24.611061,83,-2,-2018
24.620799,69,0,-2041
24.630799,58,-4,-2052
24.640567,62,0,-2027
24.650304,69,10,-2025
24.660042,76,3,-2040
24.669810,73,-4,-2025
24.679810,67,1,-2023
24.689547,76,0,-2041
24.699316,82,-2,-2041
24.709053,76,1,-2045
24.718791,76,-2,-2054
24.728791,82,-8,-2040
24.738559,76,-9,-2027
24.748296,71,-6,-2034
24.758034,73,0,-2034
24.767802,71,-4,-2025
24.777802,78,-6,-2032
24.787539,71,0,-2056
24.797307,57,1,-2056
24.807045,69,0,-2036
24.816783,69,0,-2027
24.826783,60,1,-2022
24.836551,66,0,-2027
24.846288,64,7,-2027
24.856026,62,7,-2023
24.865794,67,-6,-2031
24.875794,73,3,-2029
24.885531,69,3,-2032
24.895299,62,-8,-2029
24.905037,73,-6,-2022
24.914774,78,-2,-2041
24.924774,76,-6,-2041
24.934543,85,1,-2023
24.944280,80,10,-2041
24.954018,67,1,-2040
24.963786,73,-2,-2022
24.973786,76,0,-2048
24.983523,74,-2,-2063
24.993261,78,3,-2032
25.003029,58,3,-2029
25.012766,57,5,-2041
25.022766,82,12,-2023
25.032535,73,1,-2034
25.042272,64,0,-2045
25.052010,78,8,-2032
25.061778,83,0,-2022
25.071778,74,-9,-2025
25.081515,66,-6,-2048
25.091253,67,3,-2052
25.101021,66,-2,-2032
25.110758,66,-6,-2032
25.120758,73,3,-2038
25.130526,73,3,-2040
25.140264,78,1,-2032
25.150002,74,0,-2031
25.159770,64,0,-2036
25.169770,74,1,-2029
25.179507,74,-6,-2020
25.189245,66,-4,-2031
25.198982,82,5,-2041
25.208750,73,3,-2043
25.218750,53,0,-2056
25.228488,67,-2,-2050
25.238225,69,3,-2040
25.248725,64,5,-2045
25.257760,69,-6,-2031
25.267498,69,-4,-2027
25.277498,69,10,-2041
25.287266,76,-2,-2038
25.297003,80,-17,-2034
25.306741,69,-2,-2025
25.316509,69,7,-2020
25.326509,85,3,-2036
25.336247,67,1,-2043
25.345984,67,3,-2048
25.355752,82,8,-2052
25.365490,69,5,-2041
25.375490,71,-4,-2034
25.385227,73,-8,-2032
25.394995,69,0,-2029
25.404733,74,10,-2043
25.414471,66,7,-2041
25.424471,74,0,-2023
25.434239,73,1,-2029
25.443976,64,0,-2031
25.453714,78,-2,-2027
25.463482,71,-2,-2036
25.473482,55,-2,-2041
25.483219,66,3,-2045
25.492957,76,7,-2047
25.502725,71,1,-2036
25.512462,66,0,-2036
25.522462,73,3,-2038
25.532200,74,-6,-2032
25.541968,64,-2,-2034
25.551706,62,7,-2041
25.561443,73,1,-2036
25.571443,71,3,-2027
25.581181,71,3,-2034
25.590949,76,0,-2032
25.600686,71,-2,-2027
25.610424,74,-4,-2041
25.620424,74,1,-2038
25.630192,64,0,-2022
25.639930,67,-4,-2041
25.649667,74,5,-2052
25.659435,64,7,-2025
25.669435,58,5,-2022
25.679173,76,10,-2040
25.688910,76,10,-2032
25.698648,69,10,-2041
25.708416,74,8,-2061
25.718416,67,1,-2034
25.728153,62,-2,-2018
25.737891,67,0,-2034
25.747628,66,1,-2038
25.757397,73,0,-2043
25.767397,71,-2,-2038
25.777134,69,1,-2038
25.786902,85,12,-2048
25.796640,80,7,-2040
25.806377,62,-4,-2031
25.816377,67,5,-2034
25.826115,82,7,-2038
25.835883,74,0,-2034
25.845620,60,0,-2027
25.855358,62,-2,-2029
25.865358,73,1,-2041
25.875126,73,5,-2041
25.884864,66,1,-2034
25.894601,67,-2,-2041
25.904339,73,-2,-2029
25.914339,66,-2,-2020
25.924107,62,1,-2050
25.933844,69,3,-2040
25.943582,73,12,-2018
25.953350,66,16,-2038
25.963350,66,8,-2038
25.973087,85,1,-2038
25.982825,85,0,-2038
25.992593,64,-2,-2048
26.002331,60,-2,-2066
26.012331,66,0,-2045
26.022068,69,-2,-2036
26.031836,76,-2,-2034
26.041574,74,3,-2032
26.051311,69,1,-2041
26.061311,73,-6,-2038
26.071079,69,-4,-2032
26.080817,58,-2,-2020
26.090555,74,1,-2023
26.100323,87,1,-2041
26.110323,69,0,-2043
26.120060,66,0,-2045
26.129798,85,1,-2040
26.139566,74,0,-2047
26.149303,67,0,-2059
26.159303,87,1,-2029
26.169041,67,-2,-2016
26.178809,51,-6,-2032
26.188546,71,-2,-2036
26.198284,71,-2,-2022
26.208284,58,-2,-2016
26.218022,73,0,-2038
26.227790,85,1,-2038
26.237527,69,0,-2038
26.246927,67,1,-2052
26.257091,82,7,-2034
26.267091,76,10,-2027
26.276829,67,7,-2041
26.286566,73,-2,-2041
26.296335,80,-6,-2032
26.306072,78,-4,-2043
26.316072,67,-2,-2050
26.325840,73,3,-2029
26.335578,74,8,-2029
26.345315,78,5,-2041
26.355083,82,1,-2036
26.365083,66,0,-2029
26.374821,76,1,-2020
26.384558,76,1,-2040
26.394326,58,5,-2043
26.404064,62,3,-2031
26.414064,67,-2,-2047
26.423802,71,0,-2043
26.433570,69,-4,-2048
26.443307,76,3,-2057
26.453045,82,8,-2038
26.463045,66,-2,-2038
26.472782,71,0,-2040
26.482550,74,5,-2032
26.492288,74,1,-2027
26.502025,76,5,-2020
26.512025,67,7,-2027
26.521794,62,3,-2045
26.531531,64,3,-2045
26.541269,67,-2,-2041
26.551037,73,-6,-2050
26.561037,76,5,-2050
26.570774,66,7,-2050
26.580542,67,-2,-2034
26.590280,73,3,-2025
26.600017,64,7,-2032
26.610017,71,-4,-2027
26.619785,83,-4,-2043
26.629523,78,1,-2036
26.639261,71,-8,-2022
26.649029,80,-13,-2034
26.659029,82,-2,-2038
26.668766,64,3,-2054
26.678504,58,0,-2056
26.688272,73,0,-2025
26.698009,71,1,-2022
26.708009,69,3,-2036
26.717747,76,0,-2034
26.727515,74,7,-2032
26.737253,73,14,-2041
26.746990,74,7,-2047
26.756990,67,1,-2041
26.766758,62,-2,-2032
26.776496,73,1,-2027
26.786264,76,1,-2031
26.796001,78,-2,-2038
26.806001,76,5,-2052
26.815739,71,0,-2050
26.825507,62,-2,-2007
26.835244,58,-2,-2004
26.844982,71,-2,-2048
26.854982,76,5,-2045
26.864720,62,0,-2018
26.874488,76,-6,-2027
26.884225,80,3,-2050
26.893993,66,5,-2052
26.903993,66,0,-2050
26.913731,64,0,-2057
26.923468,69,0,-2038
26.933236,73,3,-2032
26.942974,67,7,-2054
26.952974,73,8,-2041
26.962712,71,5,-2031
26.972480,71,0,-2050
26.982217,73,5,-2048
26.991955,73,7,-2036
27.001955,73,1,-2034
27.011723,62,7,-2034
27.021460,62,8,-2032
27.031198,67,10,-2036
27.040966,73,8,-2040
27.050966,83,1,-2032
27.060703,71,-4,-2043
27.070441,58,-9,-2040
27.080209,73,-6,-2013
27.089947,74,-8,-2016
27.099947,66,-8,-2032
27.109684,76,1,-2032
27.119422,80,7,-2036
27.129190,67,7,-2043
27.138927,71,7,-2041
27.148927,83,10,-2029
27.158665,74,8,-2040
27.168433,76,0,-2054
27.178170,78,1,-2034
27.187908,73,7,-2036
27.197908,80,5,-2050
27.207676,71,17,-2047
27.217414,73,21,-2050
27.227151,78,1,-2036
27.236919,66,-4,-2031
27.246919,66,3,-2047
27.256319,80,8,-2045
27.266453,69,5,-2034
27.276191,67,3,-2027
27.285959,91,10,-2036
27.295696,78,-6,-2038
27.305696,55,-11,-2031
27.315434,62,0,-2040
27.325202,69,-4,-2034
27.334939,64,3,-2022
27.344677,67,5,-2038
27.354677,78,-9,-2043
27.364445,78,-4,-2038
27.374182,74,0,-2038
27.383920,74,1,-2041
27.393688,80,14,-2038
27.403688,83,10,-2040
27.413426,76,5,-2054
27.423194,67,12,-2056
27.432931,69,10,-2038
27.442669,76,0,-2022
27.452669,78,-4,-2016
27.462406,64,-2,-2020
27.472174,53,0,-2043
27.481912,64,0,-2048
27.491649,82,3,-2031
27.501649,74,3,-2047
27.511418,60,-2,-2056
27.521155,73,-2,-2027
27.530893,80,-2,-2016
27.540661,66,1,-2040
27.550661,57,1,-2041
27.560398,58,-9,-2027
27.570136,58,-4,-2034
27.579904,60,8,-2032
27.589641,62,5,-2025
27.599641,69,3,-2025
27.609379,74,3,-2032
27.619147,76,7,-2029
27.628885,82,3,-2022
27.638622,85,-4,-2034
27.648622,78,10,-2036
27.658390,74,17,-2036
27.668128,76,7,-2045
27.677865,69,3,-2036
27.687633,73,5,-2036
27.697633,73,1,-2045
27.707371,69,-2,-2027
27.717108,67,1,-2016
27.726877,74,1,-2025
27.736614,87,1,-2031
27.746614,82,7,-2027
27.756352,64,0,-2025
27.766120,64,1,-2043
27.775857,76,3,-2052
27.785595,82,-4,-2041
27.795595,74,3,-2038
27.805363,69,10,-2047
27.815100,82,1,-2036
27.824838,82,0,-2015
27.834606,71,7,-2034
27.844606,83,3,-2040
27.854344,87,8,-2018
27.864081,71,21,-2040
27.873849,80,7,-2045
27.883587,82,-2,-2043
27.893587,66,10,-2054
27.903324,71,5,-2040
27.913092,78,-6,-2032
27.922830,74,0,-2043
27.932567,80,5,-2045
27.942567,78,-2,-2034
27.952336,67,0,-2034
27.962073,78,12,-2041
27.971811,73,1,-2034
27.981579,64,-6,-2023
27.991579,91,10,-2022
28.001316,85,10,-2045
28.011054,62,1,-2038
28.020822,66,8,-2020
28.030559,71,7,-2038
28.040559,74,-2,-2025
28.050297,74,5,-2022
28.060065,64,7,-2047
28.069803,73,3,-2045
28.079571,83,5,-2038
28.089571,66,-2,-2032
28.099308,60,0,-2029
28.109046,80,0,-2025
28.118814,76,0,-2034
28.128551,69,5,-2047
28.138551,80,5,-2032
28.148319,71,7,-2040
28.158057,66,3,-2041
28.167795,66,8,-2031
28.177563,62,12,-2038
28.187563,67,7,-2032
28.197300,57,7,-2029
28.207038,60,1,-2038
28.216806,82,-2,-2045
28.226543,82,1,-2057
28.236543,67,-4,-2063
28.246281,64,-4,-2041
28.255680,73,1,-2029
28.265845,76,5,-2052
28.275583,73,-2,-2041
28.285351,76,-8,-2018
28.295351,87,1,-2040
28.305088,85,1,-2040
28.314826,85,-2,-2025
28.324594,89,0,-2038
28.334331,71,3,-2036
28.344331,71,-4,-2025
28.354069,83,-9,-2022
28.363837,82,5,-2032
28.373575,78,8,-2047
28.383343,76,-4,-2047
28.393343,74,-6,-2038
28.403080,64,0,-2027
28.412818,60,-2,-2041
28.422586,69,-8,-2038
28.432323,76,0,-2020
28.442323,76,8,-2040
28.452061,69,7,-2054
28.461829,73,-2,-2052
28.471566,78,-2,-2050
28.481304,66,3,-2047
28.491304,58,1,-2032
28.501072,73,1,-2027
28.510810,85,1,-2034
28.520578,76,5,-2031
28.530315,78,12,-2041
28.540315,82,0,-2045
28.550053,60,-15,-2027
28.559821,62,-2,-2025
28.569558,74,5,-2027
28.579296,62,-11,-2032
28.589296,66,-11,-2034
28.599064,78,3,-2041
28.608802,62,7,-2057
28.618539,66,5,-2057
28.628307,73,1,-2047
28.638307,64,-4,-2029
28.648045,78,0,-2031
28.657813,78,-2,-2043
28.667550,66,0,-2034
28.677288,80,3,-2036
28.687288,76,0,-2043
28.697056,73,3,-2025
28.706794,78,1,-2031
28.716562,67,1,-2057
28.726299,71,5,-2054
28.736299,74,1,-2047
28.746037,67,1,-2047
28.755805,78,7,-2040
28.765542,80,10,-2043
28.775310,82,3,-2045
28.785310,89,-4,-2036
28.795048,74,1,-2034
28.804785,66,0,-2029
28.814554,66,0,-2038
28.824291,73,12,-2043
28.834291,82,7,-2043
28.844059,69,-13,-2048
28.853797,58,0,-2025
28.863534,71,0,-2023
28.873302,76,-13,-2041
28.883302,66,3,-2036
28.893040,69,8,-2031
28.902777,71,3,-2040
28.912545,67,8,-2054
28.922283,71,8,-2059
28.932283,73,5,-2040
28.942021,67,8,-2025
28.951789,62,5,-2041
28.961526,80,3,-2032
28.971294,87,10,-2029
28.981294,67,7,-2048
28.991032,64,-9,-2036
29.000769,80,0,-2032
29.010537,85,12,-2034
29.020275,71,0,-2038
29.030275,67,0,-2057
29.040013,67,10,-2041
29.049781,67,5,-2040
29.059518,82,3,-2052
29.069286,82,-2,-2038
29.079286,66,-4,-2025
29.089024,71,3,-2027
29.098792,89,7,-2031
29.108529,80,7,-2011
29.118267,64,5,-2020
29.128267,60,0,-2043
29.138035,71,-6,-2027
29.147773,78,1,-2045
29.157541,71,7,-2054
29.167278,67,0,-2032
29.177278,60,7,-2036
29.187016,60,7,-2029
29.196784,80,3,-2023
29.206521,85,-2,-2027
29.216289,80,-6,-2029
29.226289,69,7,-2040
29.236027,57,8,-2027
29.245764,67,1,-2016
29.255533,76,-2,-2032
29.265270,69,1,-2029
29.275270,58,5,-2025
29.285008,67,3,-2038
29.294776,85,0,-2025
29.304513,74,-8,-2027
29.314251,67,-6,-2043
29.324251,71,5,-2031
29.334019,66,-8,-2031
29.343756,58,5,-2047
29.353494,53,24,-2034
29.363262,62,3,-2025
29.373262,76,-4,-2034
29.383000,82,1,-2032
29.392768,78,3,-2032
29.402505,83,10,-2031
29.412243,92,7,-2025
29.422243,76,1,-2038
29.432011,69,3,-2040
29.441748,74,1,-2038
29.451516,78,-9,-2025
29.461254,80,-9,-2029
29.471254,69,3,-2043
29.480992,64,1,-2020
29.490760,71,3,-2027
29.500497,78,8,-2045
29.510235,73,0,-2031
29.520235,60,-4,-2034
29.530003,64,-2,-2040
29.539740,69,3,-2029
29.549478,66,5,-2020
29.559246,60,1,-2032
29.569246,60,1,-2047
29.578983,60,0,-2036
29.588721,69,1,-2032
29.598489,76,7,-2034
29.608227,69,7,-2029
29.618227,78,5,-2016
29.627995,80,10,-2018
29.637732,69,16,-2040
29.647470,73,-2,-2038
29.657238,67,-11,-2020
29.667238,58,-2,-2015
29.676975,66,-2,-2023
29.686743,76,-2,-2031
29.696481,82,-2,-2036
29.706249,80,3,-2045
29.716249,80,10,-2040
29.725987,78,1,-2029
29.735724,69,-2,-2038
29.745492,67,1,-2040
29.755230,74,3,-2038
29.765230,71,-2,-2036
29.774967,60,-2,-2034
29.784735,71,3,-2036
29.794473,74,-2,-2029
29.804241,64,-4,-2027
29.814241,62,3,-2038
29.823979,67,-2,-2034
29.833716,76,1,-2020
29.843484,71,1,-2027
29.853222,73,-4,-2040
29.863222,87,0,-2036
29.872959,69,1,-2038
29.882727,67,1,-2043
29.892465,74,3,-2034
29.902233,60,3,-2031
29.912233,74,1,-2034
29.921971,83,1,-2038
29.931739,66,0,-2050
29.941476,62,-6,-2047
29.951214,69,1,-2043
29.961214,73,8,-2047
29.970982,71,3,-2027
29.980719,67,1,-2016
29.990487,62,1,-2036
30.000225,74,1,-2052
30.010225,74,10,-2045
30.019993,62,8,-2027
30.029731,67,0,-2023
30.039468,71,5,-2034
30.049236,69,3,-2045
30.059236,71,-2,-2041
30.068974,80,12,-2029
30.078711,69,16,-2034
30.088479,57,7,-2048
30.098217,74,3,-2040
30.108217,82,-2,-2029
30.117985,71,-4,-2034
30.127722,76,12,-2043
30.137491,71,7,-2041
30.147228,66,-6,-2031
30.157228,71,1,-2034
30.166966,69,0,-2040
30.176734,76,-4,-2034
30.186471,73,3,-2029
30.196239,67,1,-2032
30.206239,78,-2,-2041
30.215977,76,1,-2050
30.225714,69,1,-2052
30.235482,76,-2,-2034
30.245066,83,0,-2031
30.255066,83,7,-2047
30.264987,71,3,-2043
30.274755,67,-6,-2036
30.284493,80,3,-2040
30.294261,82,8,-2038
30.304261,73,1,-2036
30.313998,66,0,-2034
30.323766,69,3,-2034
30.333504,80,7,-2048
30.343241,74,3,-2050
30.353241,71,-9,-2029
30.363009,73,-8,-2022
30.372747,73,0,-2031
30.382484,83,0,-2032
30.392253,85,1,-2034
30.402253,74,1,-2027
30.411990,76,0,-2031
30.421758,67,-4,-2043
30.431496,58,-4,-2031
30.441233,76,0,-2032
30.451233,91,0,-2047
30.461001,82,-2,-2047
30.470739,64,0,-2052
30.480476,69,5,-2050
30.490244,69,3,-2036
30.500244,66,-4,-2034
30.509982,76,5,-2032
30.519750,58,8,-2023
30.529488,62,-2,-2025
30.539225,87,3,-2041
30.549225,76,5,-2038
30.558993,73,0,-2022
30.568731,87,-2,-2025
30.578499,78,-8,-2027
30.588236,60,-2,-2029
30.598236,69,10,-2036
30.607974,78,8,-2036
30.617742,66,3,-2029
30.627480,55,1,-2045
30.637217,64,-2,-2043
30.647217,69,0,-2023
30.656985,74,7,-2047
30.666723,89,0,-2056
30.676491,80,-4,-2031
30.686228,69,-2,-2022
30.696228,76,0,-2025
30.705966,76,3,-2022
30.715365,76,-4,-2018
30.725500,74,1,-2029
30.735268,66,12,-2038
30.745005,66,-2,-2038
30.755005,66,-8,-2038
30.764743,66,-2,-2041
30.774511,71,0,-2048
30.784248,67,1,-2048
30.793986,71,1,-2043
30.803986,73,8,-2027
30.813754,64,5,-1997
30.823492,71,-13,-2002
30.833229,76,-8,-2027
30.842997,66,7,-2027
30.852997,66,0,-2025
30.862735,76,-2,-2029
30.872472,73,14,-2036
30.882240,76,7,-2041
30.891978,74,3,-2040
30.901978,66,8,-2034
30.911715,71,-2,-2025
30.921483,74,1,-2043
30.931221,71,7,-2054
30.940959,71,1,-2027
30.950959,69,1,-2013
30.960727,78,3,-2029
30.970464,80,-2,-2034
30.980202,71,-2,-2031
30.989970,76,10,-2043
30.999970,87,19,-2050
31.009707,82,12,-2040
31.019445,66,1,-2038
31.029213,73,1,-2036
31.038951,80,3,-2038
31.048951,58,3,-2048
31.058688,62,0,-2045
31.068456,92,5,-2029
31.078194,87,1,-2034
31.087931,69,-9,-2036
31.097931,71,-8,-2031
31.107699,76,1,-2040
31.117437,85,1,-2036
31.127174,80,-4,-2031
31.136942,66,7,-2040
31.146942,66,16,-2047
31.156680,71,7,-2047
31.166418,69,-2,-2040
31.176186,64,-4,-2043
31.185923,69,0,-2040
31.195923,74,3,-2032
31.205661,67,7,-2048
31.215398,69,3,-2054
31.225166,74,5,-2034
31.234904,64,3,-2032
31.244904,67,0,-2036
31.255066,67,7,-2038
31.264438,57,-2,-2040
31.274206,71,-6,-2032
31.283943,71,7,-2045
31.293711,57,0,-2048
31.303711,74,-6,-2025
31.313449,78,1,-2025
31.323186,78,8,-2027
31.332954,82,14,-2036
31.342692,64,1,-2045
31.352692,89,5,-2047
31.362460,107,16,-2052
31.372198,69,3,-2043
31.381935,74,-4,-2036
31.391703,87,-2,-2036
31.401703,71,0,-2029
31.411441,87,10,-2031
31.421178,99,5,-2027
31.430946,76,-4,-2020
31.440684,62,0,-2034
31.450684,71,5,-2041
31.460421,71,1,-2025
31.470190,69,0,-2025
31.479927,74,12,-2052
31.489665,60,7,-2050
31.499665,62,-2,-2029
31.509433,92,8,-2038
31.519170,82,-2,-2038
31.528908,67,-8,-2032
31.538676,78,10,-2041
31.548676,78,17,-2040
31.558413,82,5,-2029
31.568151,82,-4,-2032
31.577919,78,1,-2040
31.587657,78,0,-2034
31.597657,73,-4,-2025
31.607394,66,0,-2023
31.617162,57,-2,-2027
31.626900,73,-2,-2036
31.636637,87,-2,-2040
31.646637,76,-2,-2045
31.656375,80,14,-2047
31.666143,87,10,-2031
31.675880,85,1,-2025
31.685649,83,5,-2022
31.695649,80,-4,-2032
31.705386,67,-4,-2050
31.715124,58,7,-2038
31.724892,69,1,-2032
31.734629,76,-2,-2041
31.744629,74,14,-2047
31.754367,71,17,-2034
31.764135,64,5,-2015
31.773872,66,-2,-2043
31.783610,74,-2,-2048
31.793610,73,5,-2027
31.803378,67,7,-2054
31.813116,78,3,-2048
31.822853,74,0,-2018
31.832621,57,0,-2032
31.842621,66,3,-2034
31.852359,78,1,-2022
31.862096,73,1,-2032
31.871864,78,-4,-2040
31.881602,80,3,-2043
31.891602,74,16,-2041
31.901339,82,1,-2032
31.911107,83,1,-2027
31.920845,87,5,-2016
31.930583,91,0,-2029
31.940583,80,3,-2048
31.950351,78,10,-2043
31.960088,78,12,-2038
31.969826,73,3,-2036
31.979594,67,-6,-2029
31.989594,67,-2,-2034
31.999331,73,3,-2031
32.009069,78,7,-2025
32.018837,73,3,-2036
32.028575,62,0,-2038
32.038575,60,5,-2036
32.048312,67,1,-2029
32.058080,60,3,-2022
32.067818,57,8,-2050
32.077555,71,10,-2063
32.087555,78,10,-2040
32.097323,73,5,-2047
32.107061,69,1,-2041
32.116798,71,-4,-2025
32.126566,69,1,-2040
32.136566,60,8,-2050
32.146304,64,7,-2032
32.156042,76,1,-2034
32.165810,74,-2,-2057
32.175547,76,1,-2054
32.185547,74,3,-2043
32.195285,67,1,-2034
32.205022,74,3,-2032
32.214790,82,1,-2032
32.224528,78,0,-2013
32.234528,66,5,-2018
32.244265,66,16,-2045
32.253695,73,7,-2036
32.263830,64,-6,-2016
32.273567,62,0,-2040
32.283335,74,1,-2057
32.293335,67,-2,-2032
32.303073,60,5,-2027
32.312810,67,7,-2036
32.322578,64,0,-2031
32.332316,69,5,-2036
32.342316,74,10,-2045
32.352054,64,7,-2038
32.361822,69,8,-2034
32.371559,74,17,-2038
32.381327,74,8,-2043
32.391327,69,-4,-2038
32.401065,64,3,-2029
32.410802,83,8,-2031
32.420540,83,1,-2029
32.430308,67,3,-2029
32.440308,74,3,-2038
32.450045,74,0,-2045
32.459783,69,3,-2056
32.469551,67,1,-2057
32.479289,67,-2,-2043
32.489289,66,3,-2036
32.499026,73,8,-2029
32.508794,82,3,-2025
32.518532,83,1,-2045
32.528269,83,3,-2061
32.538269,74,0,-2043
32.548037,64,0,-2027
32.557775,66,0,-2043
32.567513,67,-2,-2048
32.577281,69,0,-2027
32.587281,74,3,-2025
32.597018,62,3,-2061
32.606756,55,0,-2063
32.616524,66,0,-2020
32.626261,66,7,-2034
32.636261,62,5,-2065
32.645999,69,1,-2036
32.655736,71,7,-2034
32.665504,67,1,-2041
32.675242,71,-4,-2029
32.685242,73,-6,-2036
32.694980,71,-8,-2040
32.704748,66,-2,-2034
32.714485,66,0,-2032
32.724223,71,-2,-2029
32.734223,67,-4,-2025
32.743991,66,-4,-2029
32.753728,73,0,-2031
32.763466,76,7,-2032
32.773234,71,8,-2045
32.783234,66,0,-2038
32.792972,60,-6,-2027
32.802709,71,10,-2034
32.812477,82,12,-2031
32.822215,74,5,-2040
32.832215,74,5,-2047
32.841983,74,-8,-2027
32.851720,55,-8,-2029
32.861458,60,12,-2032
32.871226,87,16,-2022
32.881226,76,5,-2032
32.890963,67,-2,-2036
32.900701,74,1,-2043
32.910469,67,-4,-2043
32.920207,64,1,-2031
32.930207,76,17,-2043
32.939944,80,10,-2047
32.949712,74,5,-2038
32.959450,78,7,-2041
32.969218,89,8,-2032
32.979218,85,16,-2029
32.988955,74,5,-2038
32.998693,74,-8,-2020
33.008461,69,-4,-2016
33.018199,71,0,-2038
33.028199,83,0,-2025
33.037936,74,1,-2016
33.047704,64,-4,-2040
33.057442,73,-2,-2040
33.067179,78,-8,-2016
33.077179,71,-9,-2032
33.086947,69,1,-2047
33.096685,73,-2,-2032
33.106422,66,-4,-2032
33.116191,69,1,-2041
33.126191,82,-4,-2032
33.135928,73,-6,-2023
33.145666,71,-2,-2031
33.155403,80,0,-2031
33.165171,82,3,-2023
33.175171,74,1,-2029
33.184909,74,1,-2034
33.194646,76,0,-2038
33.204414,60,1,-2052
33.214152,58,1,-2041
33.224152,78,-8,-2029
33.233889,76,-4,-2032
33.243627,73,3,-2023
33.253057,82,7,-2034
33.263191,76,5,-2043
33.272929,67,-2,-2029
33.282929,64,0,-2038
33.292697,64,1,-2047
33.302434,69,3,-2045
33.312172,74,1,-2041
33.321940,73,1,-2052
33.331940,62,5,-2061
33.341678,62,1,-2034
33.351415,67,-2,-2038
33.361183,58,0,-2057
33.370921,66,12,-2047
33.380921,82,17,-2041
33.390658,74,0,-2036
33.400426,66,-9,-2025
33.410164,80,7,-2031
33.419901,85,10,-2034
33.429901,69,0,-2031
33.439670,76,1,-2031
33.449407,83,5,-2027
33.459145,73,3,-2040
33.468913,74,5,-2050
33.478913,67,1,-2043
33.488650,60,0,-2043
33.498388,71,-2,-2038
33.508156,71,-2,-2032
33.517893,71,0,-2043
33.527893,69,1,-2048
33.537661,67,0,-2043
33.547399,78,0,-2047
33.557137,76,0,-2043
33.566905,67,-4,-2038
33.576905,74,1,-2032
33.586642,73,5,-2025
33.596410,67,-2,-2027
33.606148,74,0,-2050
33.615885,73,7,-2050
33.625885,73,0,-2036
33.635653,85,-4,-2048
33.645391,87,7,-2043
33.655159,76,-2,-2025
33.664897,76,-11,-2015
33.674897,71,3,-2029
33.684634,64,5,-2048
33.694402,82,-4,-2052
33.704140,82,5,-2050
33.713877,64,1,-2041
33.723877,58,-8,-2034
33.733645,60,1,-2036
33.743383,74,3,-2040
33.753120,76,5,-2034
33.762889,67,7,-2025
33.772889,67,-4,-2027
33.782626,74,3,-2034
33.792364,74,14,-2054
33.802132,69,3,-2052
33.811869,74,-2,-2034
33.821869,78,8,-2031
33.831607,73,3,-2022
33.841375,71,-6,-2018
33.851112,78,3,-2036
33.860850,82,10,-2031
33.870850,64,3,-2018
33.880618,64,3,-2038
33.890356,73,12,-2048
33.900093,69,1,-2023
33.909861,74,-4,-2022
33.919861,74,7,-2032
33.929599,69,5,-2029
33.939336,67,5,-2047
33.949104,60,1,-2043
33.958842,66,0,-2032
33.968842,66,7,-2052
33.978579,67,5,-2054
33.988347,87,3,-2036
33.998085,78,-2,-2034
34.007853,62,-6,-2041
34.017853,82,1,-2041
34.027591,91,3,-2043
34.037328,74,-4,-2034
34.047066,73,1,-2043
34.056834,74,3,-2056
34.066834,69,-2,-2048
34.076571,78,8,-2041
34.086309,71,3,-2036
34.096077,67,-4,-2048
34.105815,73,1,-2056
34.115815,64,-2,-2041
34.125552,67,1,-2043
34.135320,78,10,-2059
34.145058,73,5,-2052
34.154795,67,5,-2031
34.164795,71,5,-2036
34.174563,74,1,-2048
34.184301,69,-2,-2040
34.194038,69,-6,-2045
34.203806,71,0,-2068
34.213806,62,-2,-2063
34.223544,66,1,-2040
34.233282,78,7,-2034
34.243050,80,0,-2047
34.252449,76,-2,-2047
34.262583,67,-2,-2032
34.272583,69,-4,-2034
34.282321,67,10,-2041
34.292089,73,19,-2038
34.301826,82,7,-2032
34.311564,67,7,-2034
34.321564,67,19,-2041
34.331332,71,7,-2031
34.341070,62,1,-2029
34.350807,78,12,-2036
34.360545,76,7,-2023
34.370545,60,0,-2020
34.380313,76,10,-2041
34.390050,80,-9,-2036
34.399818,76,-24,-2025
34.409556,69,8,-2036
34.419556,66,14,-2040
34.429294,71,3,-2041
34.439062,71,3,-2050
34.448799,73,-6,-2034
34.458537,74,0,-2029
34.468537,67,8,-2041
34.478305,66,-2,-2040
34.488042,62,-2,-2057
34.497780,64,5,-2066
34.507548,74,1,-2050
34.517548,73,0,-2050
34.527285,67,7,-2056
34.537023,78,12,-2059
34.546791,74,7,-2056
34.556529,62,5,-2038
34.566529,69,3,-2038
34.576266,74,-4,-2047
34.586034,60,1,-2038
34.595772,66,3,-2032
34.605540,73,3,-2047
34.615540,67,7,-2048
34.625277,74,0,-2036
34.635015,71,-2,-2032
34.644753,71,10,-2036
34.654521,82,10,-2045
34.664521,74,0,-2056
34.674258,71,-2,-2040
34.683996,76,-2,-2023
34.693764,83,3,-2041
34.703501,71,5,-2050
34.713501,60,-6,-2032
34.723269,78,-4,-2029
34.733007,67,0,-2047
34.742744,55,3,-2056
34.752513,71,1,-2041
34.762513,73,-2,-2013
34.772250,78,1,-2018
34.782018,76,0,-2036
34.791756,67,0,-2029
34.801493,69,-2,-2023
34.811493,73,-2,-2038
34.821261,83,8,-2047
34.830999,73,3,-2032
34.840767,53,-2,-2036
34.850504,74,1,-2050
34.860504,82,-2,-2045
34.870242,69,-2,-2057
34.880010,67,5,-2059
34.889748,66,3,-2047
34.899516,69,0,-2043
34.909516,71,0,-2029
34.919253,66,-6,-2022
34.928991,78,0,-2032
34.938728,76,0,-2034
34.948496,64,-8,-2016
34.958496,76,-2,-2020
34.968234,74,0,-2043
34.978002,71,5,-2056
34.987740,71,1,-2041
34.997477,67,-4,-2027
35.007477,67,5,-2029
35.017245,66,7,-2032
35.026983,69,-2,-2054
35.036720,69,-6,-2059
35.046488,67,7,-2038
35.056488,69,14,-2038
35.066226,58,1,-2041
35.075994,66,3,-2048
35.085732,76,1,-2027
35.095469,73,-4,-2009
35.105469,69,-2,-2036
35.115237,69,1,-2031
35.124975,74,5,-2018
35.134712,74,7,-2045
35.144480,60,1,-2050
35.154480,62,3,-2032
35.164218,71,12,-2043
35.173955,67,10,-2034
35.183723,74,0,-2013
35.193461,87,1,-2032
35.203461,89,5,-2045
35.213229,87,1,-2023
35.222967,67,3,-2023
35.232704,57,7,-2054
35.242472,73,0,-2040
35.252472,80,-2,-2020
35.262210,73,-4,-2043
35.271947,66,-11,-2040
35.281715,64,3,-2043
35.291453,71,12,-2041
35.301453,73,-2,-2031
35.311191,71,-4,-2056
35.320959,71,7,-2045
35.330696,62,5,-2016
35.340434,66,-6,-2032
35.350434,85,-6,-2034
35.360202,78,1,-2016
35.369939,73,-2,-2020
35.379677,83,1,-2034
35.389445,74,3,-2043
35.399445,73,-2,-2040
35.409182,74,-2,-2036
35.418920,69,-2,-2032
35.428688,76,17,-2038
35.438426,76,21,-2043
35.448426,69,0,-2041
35.458194,67,0,-2043
35.467931,69,0,-2034
35.477669,76,-2,-2031
35.487406,83,1,-2031
35.497406,74,-4,-2023
35.507174,67,0,-2023
35.516912,73,-6,-2020
35.526649,66,-13,-2025
35.536418,60,5,-2050
35.546418,69,8,-2057
35.556155,71,-6,-2038
35.565923,64,-2,-2029
35.575661,55,0,-2040
35.585398,64,0,-2045
35.595398,82,5,-2038
35.605166,76,-2,-2031
35.614904,67,-2,-2047
35.624641,64,1,-2052
35.634410,62,1,-2041
35.644410,67,7,-2050
35.654147,76,0,-2056
35.663885,71,5,-2038
35.673653,62,5,-2025
35.683390,82,-6,-2025
35.693390,87,1,-2029
35.703128,66,0,-2034
35.712896,71,5,-2036
35.722633,78,7,-2034
35.732371,71,-2,-2034
35.742371,69,10,-2040
35.752139,73,16,-2050
35.761877,78,12,-2054
35.771645,76,7,-2036
35.781382,64,3,-2032
35.791382,67,8,-2048
35.801120,78,1,-2052
35.810888,76,-6,-2029
35.820625,80,3,-2029
35.830363,78,8,-2057
35.840363,69,1,-2050
35.850131,73,-2,-2041
35.859868,80,1,-2056
35.869606,73,0,-2041
35.879374,64,-6,-2029
35.889374,78,8,-2038
35.899112,87,12,-2034
35.908880,69,-6,-2025
35.918617,64,3,-2036
35.928355,67,5,-2052
35.938355,73,-9,-2038
35.948123,82,-2,-2022
35.957860,69,8,-2043
35.967598,66,7,-2050
35.977366,78,7,-2040
35.987366,73,8,-2040
35.997104,67,1,-2047
36.006872,74,-4,-2047
36.016609,74,1,-2034
36.026347,69,0,-2018
36.036347,69,-8,-2015
36.046115,71,1,-2034
36.055852,69,7,-2052
36.065590,67,0,-2041
36.075358,66,-4,-2038
36.085358,67,0,-2045
36.095096,71,0,-2031
36.104864,69,-4,-2027
36.114601,76,3,-2036
36.124339,85,3,-2040
36.134339,78,-9,-2038
36.144107,69,1,-2040
36.153844,80,12,-2048
36.163582,76,0,-2048
36.173350,71,-11,-2027
36.183350,78,1,-2018
36.193087,58,10,-2036
36.202825,57,3,-2043
36.212593,87,3,-2050
36.222331,85,5,-2054
36.232331,71,5,-2038
36.242099,85,5,-2032
36.252627,83,1,-2032
36.261632,69,-2,-2041
36.271400,76,-2,-2047
36.281138,78,0,-2034
36.291138,69,-4,-2045
36.300876,71,-4,-2052
36.310644,73,-2,-2034
36.320381,69,1,-2038
36.330119,76,8,-2032
36.340119,85,3,-2022
36.349887,78,-4,-2056
36.359624,64,-4,-2063
36.369392,71,-2,-2027
36.379130,76,-4,-2015
36.389130,69,0,-2031
36.398868,80,3,-2045
36.408636,74,7,-2031
36.418373,73,12,-2029
36.428111,87,10,-2048
36.438111,89,0,-2043
36.447879,83,-6,-2038
36.457616,76,0,-2052
36.467354,66,10,-2052
36.477122,71,14,-2050
36.487122,76,3,-2054
36.496859,73,5,-2034
36.506628,67,3,-2031
36.516365,66,3,-2038
36.526103,71,12,-2029
36.536103,82,5,-2020
36.545871,78,1,-2029
36.555608,64,7,-2043
36.565346,69,1,-2041
36.575114,73,-4,-2029
36.585114,64,3,-2040
36.594851,66,3,-2043
36.604589,67,-2,-2025
36.614357,62,-2,-2048
36.624095,76,0,-2057
36.634095,73,-4,-2025
36.643863,64,0,-2031
36.653600,82,5,-2040
36.663338,83,5,-2047
36.673106,73,5,-2045
36.683106,67,5,-2040
36.692843,67,7,-2056
36.702581,69,12,-2043
36.712349,67,8,-2050
36.722087,67,0,-2052
36.732087,71,-2,-2022
36.741824,71,-2,-2029
36.751592,69,1,-2045
36.761330,74,5,-2047
36.771067,74,-2,-2029
36.781067,66,-6,-2016
36.790835,80,8,-2036
36.800573,94,10,-2043
36.810341,74,-4,-2025
36.820078,57,-4,-2018
36.830078,73,3,-2043
36.839816,80,3,-2054
36.849584,64,7,-2027
36.859322,57,0,-2040
36.869059,67,-9,-2056
36.879059,71,-4,-2023
36.888827,76,-4,-2022
36.898565,69,1,-2041
36.908302,57,7,-2032
36.918070,60,0,-2036
36.928070,64,-4,-2052
36.937808,69,3,-2038
36.947545,78,8,-2032
36.957314,76,1,-2043
36.967051,67,3,-2043
36.977051,67,12,-2050
36.986789,76,5,-2041
36.996557,78,1,-2041
37.006294,76,-4,-2045
37.016032,80,-2,-2038
37.026032,80,10,-2040
37.035800,82,7,-2034
37.045537,80,3,-2038
37.055275,69,7,-2032
37.065013,67,3,-2041
37.075013,69,1,-2065
37.084781,73,-2,-2038
37.094518,74,5,-2027
37.104256,69,5,-2048
37.113993,69,-6,-2034
37.123993,69,3,-2029
37.133761,62,7,-2048
37.143499,64,-2,-2040
37.153236,60,0,-2023
37.163004,69,3,-2027
37.173004,87,-6,-2025
37.182742,71,-6,-2029
37.192480,57,0,-2034
37.202248,73,-4,-2041
37.211985,73,-4,-2048
37.221985,60,1,-2036
37.231723,69,-6,-2029
37.241460,83,-11,-2038
37.250860,83,-11,-2029
37.261024,73,-11,-2023
37.270762,66,-9,-2038
37.280762,76,-2,-2027
37.290500,80,14,-2036
37.300268,74,10,-2057
37.310005,78,1,-2052
37.319743,78,1,-2041
37.329743,74,3,-2041
37.339511,67,3,-2047
37.349248,67,0,-2023
37.358986,74,-4,-2016
37.368723,69,-2,-2041
37.378723,55,0,-2045
37.388492,57,1,-2038
37.398229,73,3,-2034
37.407967,73,3,-2034
37.417735,69,-2,-2045
37.427735,64,-6,-2043
37.437472,62,-2,-2031
37.447210,69,0,-2040
37.456978,73,-4,-2052
37.466715,71,0,-2050
37.476715,62,10,-2036
37.486453,60,7,-2023
37.496221,69,-2,-2041
37.505959,60,-4,-2041
37.515696,62,3,-2034
37.525696,71,1,-2041
37.535464,66,-4,-2032
37.545202,83,1,-2038
37.554939,89,-2,-2027
37.564707,71,-4,-2018
37.574707,74,12,-2034
37.584445,74,8,-2038
37.594213,67,-9,-2034
37.603951,69,-2,-2032
37.613688,74,0,-2018
37.623688,78,-11,-2020
37.633456,76,3,-2048
37.643194,76,7,-2047
37.652931,80,-6,-2034
37.662669,74,0,-2045
37.672669,67,-2,-2040
37.682437,67,-6,-2031
37.692174,66,1,-2040
37.701942,67,0,-2032
37.711680,74,0,-2036
37.721680,74,1,-2056
37.731418,73,1,-2045
37.741155,87,-2,-2045
37.750923,83,0,-2054
37.760661,66,5,-2041
37.770661,69,5,-2031
37.780398,76,7,-2043
37.790166,69,8,-2054
37.799904,73,-2,-2047
37.809641,74,0,-2041
37.819641,73,8,-2032
37.829410,71,1,-2032
37.839147,58,-2,-2043
37.848885,66,0,-2038
37.858653,80,3,-2040
37.868653,67,5,-2050
37.878390,67,-8,-2041
37.888128,74,-8,-2031
37.897896,53,5,-2025
37.907633,53,1,-2020
37.917633,76,-6,-2025
37.927371,76,3,-2034
37.937108,66,3,-2038
37.946877,71,-6,-2032
37.956614,82,8,-2038
37.966614,67,21,-2057
37.976352,57,10,-2050
37.986120,80,1,-2048
37.995857,78,7,-2057
38.005595,67,12,-2041
38.015595,69,10,-2043
38.025363,66,-2,-2047
38.035100,66,-13,-2027
38.044838,64,-4,-2020
38.054606,71,3,-2027
38.064606,76,3,-2036
38.074344,60,10,-2041
38.084081,69,10,-2025
38.093849,73,-6,-2016
38.103587,53,-11,-2029
38.113587,60,-6,-2025
38.123324,74,-9,-2023
38.133092,74,0,-2032
38.142830,69,5,-2043
38.152567,66,-4,-2052
38.162567,71,-2,-2040
38.172336,78,3,-2038
38.182073,74,-2,-2041
38.191841,73,-4,-2031
38.201579,69,7,-2043
38.211579,53,12,-2057
38.221316,55,5,-2038
38.231084,83,7,-2036
38.240822,94,17,-2041
38.250221,76,5,-2038
38.260356,67,-8,-2038
38.270356,64,0,-2031
38.280124,57,8,-2052
38.289861,67,8,-2065
38.299599,74,3,-2043
38.309367,73,3,-2041
38.319367,71,7,-2034
38.329104,64,1,-2031
38.338842,64,5,-2050
38.348610,82,10,-2048
38.358347,85,-6,-2034
38.368347,73,-2,-2038
38.378085,74,12,-2038
38.387853,76,3,-2025
38.397591,73,-2,-2025
38.407328,73,0,-2041
38.417328,73,1,-2041
38.427066,78,5,-2043
38.436834,73,5,-2059
38.446571,76,1,-2050
38.456309,83,7,-2041
38.466309,62,8,-2050
38.476077,51,3,-2045
38.485815,73,3,-2034
38.495552,82,1,-2029
38.505290,74,-2,-2027
38.515290,76,1,-2041
38.525058,78,0,-2054
38.534795,66,-4,-2031
38.544533,66,5,-2038
38.554301,80,10,-2045
38.564301,78,-2,-2020
38.574038,66,-2,-2040
38.583776,64,-2,-2054
38.593544,67,-2,-2038
38.603282,73,3,-2040
38.613282,80,5,-2040
38.623019,74,3,-2036
38.632787,74,-2,-2036
38.642525,73,0,-2038
38.652262,71,-4,-2034
38.662262,73,0,-2032
38.672030,60,19,-2043
38.681768,71,7,-2047
38.691505,76,-6,-2027
38.701274,58,8,-2025
38.711274,58,1,-2041
38.721011,66,-6,-2034
38.730749,73,10,-2032
38.740517,69,7,-2052
38.750254,73,3,-2050
38.760254,74,14,-2034
38.769992,62,3,-2029
38.779760,74,-2,-2040
38.789497,85,7,-2047
38.799235,74,7,-2043
38.809235,71,8,-2038
38.819003,76,8,-2031
38.828741,80,0,-2036
38.838478,69,-2,-2031
38.848246,71,8,-2023
38.858246,80,10,-2043
38.867984,71,-6,-2048
38.877752,67,0,-2032
38.887489,69,3,-2041
38.897227,60,-8,-2054
38.907227,66,1,-2032
38.916995,66,5,-2025
38.926732,67,-2,-2034
38.936470,82,-4,-2029
38.946238,76,0,-2045
38.956238,60,7,-2052
38.965976,71,5,-2027
38.975744,78,3,-2047
38.985481,74,10,-2056
38.995219,82,1,-2034
39.005219,78,-13,-2027
39.014987,71,-2,-2015
39.024724,66,7,-2031
39.034462,69,5,-2052
39.044230,76,1,-2054
39.054230,74,-2,-2052
39.063968,78,1,-2029
39.073705,78,-4,-2020
39.083443,73,-4,-2050
39.093211,76,1,-2056
39.103211,82,0,-2027
39.112948,71,7,-2031
39.122686,69,8,-2050
39.132454,74,1,-2045
39.142191,74,1,-2023
39.152191,69,1,-2020
39.161929,62,-4,-2032
39.171697,67,-4,-2034
39.181435,76,-6,-2038
39.191172,78,-4,-2041
39.201172,80,1,-2040
39.210940,83,0,-2038
39.220678,76,-4,-2025
39.230415,67,-4,-2023
39.240183,66,1,-2032
39.250183,69,5,-2036
39.259583,74,-6,-2029
39.269717,71,-9,-2020
39.279455,74,7,-2038
39.289223,73,5,-2054
39.298960,67,-8,-2040
39.308960,73,7,-2027
39.318698,69,10,-2031
39.328466,67,-4,-2027
39.338203,74,-2,-2036
39.347941,83,7,-2036
39.357941,82,1,-2015
39.367709,67,-6,-2029
39.377447,74,7,-2056
39.387184,82,10,-2052
39.396952,71,5,-2038
39.406952,71,10,-2029
39.416690,80,0,-2048
39.426427,87,-2,-2056
39.436165,83,1,-2029
39.445933,64,-2,-2032
39.455933,64,3,-2048
39.465670,76,3,-2038
39.475408,69,3,-2043
39.485146,74,0,-2050
39.494883,82,-9,-2029
39.504883,69,-2,-2032
39.514651,66,7,-2054
39.524389,69,7,-2048
39.534126,80,5,-2038
39.543864,80,10,-2036
39.553864,71,8,-2041
39.563632,66,-2,-2038
39.573369,67,-2,-2018
39.583107,73,0,-2016
39.592845,67,-4,-2027
39.602845,74,-2,-2025
39.612613,87,-4,-2034
39.622350,74,3,-2045
39.632088,69,14,-2040
39.641825,74,5,-2040
39.651825,73,-4,-2036
39.661593,71,1,-2022
39.671331,67,3,-2040
39.681068,64,-4,-2059
39.690806,69,-6,-2052
39.700806,66,0,-2032
39.710574,62,-2,-2027
39.720312,73,1,-2050
39.730049,73,-2,-2047
39.739787,76,-9,-2016
39.749787,91,1,-2023
39.759555,73,7,-2031
39.769292,71,0,-2027
39.779030,78,0,-2043
39.788798,66,-6,-2041
39.798798,80,0,-2023
39.808535,83,3,-2032
39.818273,62,-2,-2045
39.828011,62,1,-2034
39.837779,71,10,-2040
39.847779,69,0,-2040
39.857516,69,-4,-2022
39.867254,89,8,-2034
39.877022,94,8,-2052
39.886759,74,-4,-2032
39.896759,66,-9,-2027
39.906527,69,-6,-2048
39.916265,64,5,-2050
39.926003,62,5,-2043
39.935740,74,-6,-2045
39.945740,69,-2,-2032
39.955508,62,7,-2029
39.965246,85,8,-2032
39.974983,87,7,-2043
39.984721,73,-2,-2041
39.994721,74,-4,-2023
40.004489,71,-2,-2032
40.014226,62,-4,-2038
40.023964,64,0,-2036
40.033732,69,-8,-2032
40.043732,69,-15,-2020
40.053470,71,-4,-2032
40.063207,71,3,-2052
40.072975,66,3,-2059
40.082713,53,3,-2052
40.092713,51,5,-2036
40.102450,74,5,-2032
40.112188,85,0,-2031
40.121925,73,12,-2034
40.131693,73,17,-2040
40.141693,74,0,-2025
40.151431,66,0,-2032
40.161169,64,7,-2057
40.170937,64,3,-2061
40.180674,69,7,-2050
40.190674,73,3,-2034
40.200412,66,-8,-2025
40.210180,69,-4,-2034
40.219917,74,7,-2056
40.229655,66,8,-2054
40.239655,58,1,-2023
40.249392,67,-4,-2025
40.259160,78,7,-2041
40.268898,82,3,-2027
40.278636,80,0,-2043
40.288636,71,7,-2070
40.298404,62,-11,-2032
40.308141,67,-9,-2029
40.317879,74,8,-2057
40.327647,73,-2,-2041
40.337647,74,-4,-2025
40.347384,57,1,-2023
40.357122,46,-4,-2029
40.366859,71,0,-2034
40.376628,78,0,-2038
40.386628,73,-9,-2040
40.396365,83,-9,-2029
40.406103,71,3,-2041
40.415871,66,8,-2047
40.425608,74,-2,-2034
40.435608,76,5,-2043
40.445346,71,7,-2038
40.455083,67,0,-2018
40.464851,76,3,-2038
40.474589,76,7,-2056
40.484589,67,0,-2041
40.494326,67,-4,-2038
40.504095,67,7,-2054
40.513832,66,-4,-2043
40.523570,67,-17,-2022
40.533570,64,0,-2025
40.543307,71,8,-2032
40.553075,89,5,-2043
40.562813,78,1,-2041
40.572550,60,-2,-2032
40.582550,71,0,-2047
40.592318,74,5,-2061
40.602056,73,5,-2047
40.611794,89,5,-2034
40.621531,83,5,-2045
40.631531,58,3,-2050
40.641299,73,-2,-2038
40.651037,82,-6,-2038
40.660774,66,-8,-2038
40.670542,74,0,-2027
40.680542,83,12,-2040
40.690280,64,7,-2047
40.700017,55,0,-2040
40.709785,55,1,-2045
40.719523,66,0,-2045
40.729523,73,7,-2036
40.739261,64,8,-2045
40.748998,71,0,-2038
40.758766,73,-2,-2016
40.768504,62,0,-2016
40.778504,69,3,-2032
40.788241,67,5,-2052
40.798009,67,0,-2047
40.807747,83,-4,-2036
40.817484,83,-2,-2043
40.827484,73,8,-2040
40.837222,73,19,-2038
40.846990,76,10,-2038
40.856728,71,-4,-2031
40.866465,62,1,-2034
40.876465,69,3,-2040
40.886233,73,0,-2036
40.895971,73,12,-2038
40.905708,82,7,-2036
40.915476,74,-6,-2045
40.925476,69,0,-2054
40.935214,71,0,-2040
40.944951,60,-2,-2036
40.954720,58,0,-2038
40.964457,74,-4,-2036
40.974457,76,0,-2038
40.984225,67,3,-2040
40.993963,74,10,-2031
41.003700,78,3,-2032
41.013468,71,-6,-2034
41.023468,71,0,-2029
41.033206,66,-4,-2040
41.042943,58,-4,-2036
41.052712,64,10,-2041
41.062449,76,10,-2054
41.072449,80,0,-2040
41.082217,67,-2,-2032
41.091955,71,3,-2027
41.101692,78,0,-2034
41.111460,69,-8,-2040
41.121460,71,-4,-2031
41.131198,73,0,-2048
41.140935,64,-2,-2050
41.150703,67,3,-2022
41.160441,73,1,-2043
41.170441,69,-6,-2047
41.180209,64,-2,-2009
41.189947,60,5,-2041
41.199684,69,5,-2061
41.209452,85,5,-2029
41.219452,76,1,-2029
41.229190,57,-4,-2032
41.238927,62,8,-2040
41.248938,76,7,-2041
41.258462,69,-8,-2034
41.268200,67,-2,-2048
41.278200,67,5,-2048
41.287968,67,3,-2043
41.297705,74,1,-2036
41.307443,74,-2,-2025
41.317211,73,-2,-2036
41.327211,80,7,-2048
41.336949,73,1,-2038
41.346686,69,-4,-2045
41.356454,94,19,-2065
41.366192,96,19,-2045
41.376192,73,0,-2029
41.385929,69,-2,-2036
41.395697,73,0,-2043
41.405435,69,1,-2034
41.415203,71,3,-2031
41.425203,80,8,-2041
41.434941,73,14,-2036
41.444678,67,7,-2027
41.454077,69,1,-2032
41.463874,69,1,-2031
41.473670,74,5,-2027
41.483466,83,5,-2029
41.493262,80,0,-2036
41.503396,73,0,-2043
41.513164,76,-2,-2032
41.523164,73,1,-2036
41.532902,69,8,-2059
41.542639,69,3,-2066
41.552408,73,14,-2088
41.562145,71,21,-2057
41.572145,64,0,-2016
41.581883,78,7,-2057
41.591620,83,32,-2063
41.601388,73,21,-2032
41.611126,73,0,-2036
41.621126,74,0,-2050
41.630863,83,0,-2048
41.640631,76,1,-2034
41.650369,64,0,-2022
41.660137,62,-8,-2031
41.670137,73,3,-2048
41.679875,82,5,-2047
41.689612,67,-13,-2031
41.699380,66,-13,-2031
41.709118,73,0,-2041
41.719118,71,3,-2036
41.728855,83,10,-2031
41.738623,69,7,-2036
41.748361,62,1,-2040
41.758098,85,3,-2029
41.768098,74,5,-2031
41.777867,69,10,-2041
41.787604,74,14,-2034
41.797372,66,8,-2038
41.807110,67,5,-2040
41.817110,73,0,-2023
41.826847,64,-13,-2020
41.836615,64,-4,-2032
41.846353,69,8,-2041
41.856090,74,5,-2050
41.866090,82,0,-2041
41.875858,82,5,-2022
41.885596,73,10,-2040
41.895334,64,-2,-2054
41.905102,64,-4,-2034
41.915102,67,5,-2027
41.924839,73,3,-2048
41.934577,76,1,-2048
41.944345,62,8,-2040
41.954082,62,7,-2059
41.964082,71,0,-2068
41.973820,76,5,-2056
41.983588,78,3,-2029
41.993326,60,-6,-2023
42.003063,57,-2,-2043
42.013063,71,1,-2040
42.022831,67,1,-2032
42.032569,67,3,-2043
42.042306,73,-8,-2031
42.052074,62,-9,-2022
42.062074,69,0,-2038
42.071812,89,0,-2043
42.081549,82,5,-2047
42.091317,69,5,-2043
42.101055,67,3,-2025
42.111055,71,5,-2018
42.120823,71,1,-2040
42.130561,73,7,-2043
42.140298,78,1,-2023
42.150066,71,-6,-2029
42.160066,74,10,-2047
42.169804,91,7,-2036
42.179541,69,-8,-2036
42.189309,58,-2,-2041
42.199047,74,1,-2038
42.209047,66,-2,-2045
42.218785,67,0,-2038
42.228553,83,-4,-2032
42.238290,73,3,-2038
42.247690,66,14,-2047
42.257854,74,5,-2047
42.267854,66,-2,-2027
42.277592,69,-4,-2032
42.287329,85,-6,-2034
42.297097,73,-2,-2025
42.306835,73,3,-2036
42.316835,82,1,-2027
42.326603,80,8,-2031
42.336341,82,10,-2048
42.346078,89,1,-2061
42.355816,89,3,-2066
42.365816,82,5,-2048
42.375584,74,0,-2050
42.385321,82,-2,-2048
42.395059,78,-4,-2038
42.404827,62,0,-2059
42.414827,62,3,-2063
42.424565,69,-6,-2036
42.434302,83,-6,-2032
42.444070,82,0,-2038
42.453808,71,-2,-2020
42.463808,80,1,-2022
42.473545,73,0,-2036
42.483313,69,8,-2032
42.493051,82,14,-2045
42.502819,74,1,-2052
42.512819,69,-4,-2025
42.522556,74,1,-2023
42.532294,74,1,-2036
42.542062,74,3,-2032
42.551800,76,7,-2040
42.561800,73,5,-2040
42.571537,69,0,-2027
42.581305,67,0,-2034
42.591043,67,-2,-2052
42.600811,66,-6,-2045
42.610811,62,-4,-2034
42.620548,66,5,-2040
42.630286,76,1,-2036
42.640054,76,1,-2043
42.649792,62,3,-2052
42.659792,60,0,-2034
42.669560,76,3,-2036
42.679297,76,3,-2048
42.689035,74,-2,-2036
42.698803,80,-4,-2027
42.708803,60,-4,-2029
42.718540,58,1,-2029
42.728278,73,-6,-2040
42.738046,80,-6,-2040
42.747784,85,10,-2031
42.757784,67,3,-2040
42.767521,53,-13,-2047
42.777289,69,-9,-2036
42.787027,74,3,-2040
42.796764,69,3,-2050
42.806764,69,-8,-2031
42.816532,67,0,-2015
42.826270,74,14,-2038
42.836007,74,0,-2047
42.845775,60,-8,-2031
42.855775,67,7,-2032
42.865513,76,-8,-2031
42.875251,76,-8,-2031
42.885019,73,12,-2032
42.894756,73,1,-2032
42.904756,76,-13,-2034
42.914494,62,-8,-2032
42.924262,58,-2,-2038
42.933999,76,0,-2047
42.943737,74,1,-2050
42.953737,64,3,-2048
42.963505,66,5,-2034
42.973243,76,1,-2034
42.983011,69,-2,-2041
42.992748,67,5,-2041
43.002748,83,10,-2040
43.012486,66,5,-2032
43.022254,53,-4,-2027
43.031991,67,-6,-2038
43.041729,74,1,-2052
43.051729,78,5,-2045
43.061497,73,1,-2038
43.071234,66,0,-2047
43.080972,71,-2,-2047
43.090740,78,-2,-2036
43.100740,80,8,-2032
43.110478,85,8,-2034
43.120246,78,0,-2050
43.129983,67,7,-2047
43.139721,80,7,-2029
43.149721,76,0,-2038
43.159489,57,5,-2032
43.169226,64,0,-2036
43.178964,78,-11,-2045
43.188732,80,-4,-2031
43.198732,76,1,-2031
43.208470,76,-2,-2034
43.218238,73,0,-2038
43.227975,76,8,-2038
43.237713,85,5,-2043
43.247713,78,-8,-2043
43.257112,69,-4,-2027
43.267277,69,1,-2034
43.277014,73,0,-2050
43.286783,71,5,-2052
43.296520,64,3,-2038
43.306520,76,-4,-2022
43.316258,76,-2,-2031
43.325995,71,3,-2025
43.335763,73,-6,-2018
43.345501,71,3,-2066
43.355501,83,23,-2070
43.365269,83,10,-2027
43.375006,66,-4,-2052
43.384744,67,3,-2056
43.394512,74,-2,-2025
43.404512,67,-8,-2047
43.414250,71,0,-2057
43.423987,85,0,-2029
43.433755,78,-2,-2027
43.443493,74,5,-2041
43.453493,85,7,-2023
43.463230,74,-2,-2015
43.472998,74,1,-2032
43.482736,91,5,-2041
43.492473,80,-2,-2038
43.502473,66,-6,-2031
43.512242,62,-2,-2036
43.521979,66,-2,-2038
43.531717,60,-4,-2038
43.541485,58,0,-2034
43.551485,67,-2,-2022
43.561222,64,-9,-2020
43.570960,64,-11,-2013
43.580728,71,-4,-2016
43.590465,78,0,-2045
43.600465,82,-4,-2048
43.610203,69,-2,-2027
43.619971,66,-2,-2027
43.629709,76,1,-2041
43.639446,76,7,-2045
43.649446,71,3,-2034
43.659214,69,7,-2032
43.668952,67,-4,-2029
43.678689,67,-9,-2036
43.688457,71,5,-2043
43.698457,74,-2,-2025
43.708195,74,0,-2036
43.717932,69,12,-2041
43.727701,71,1,-2025
43.737438,69,-6,-2031
43.747438,64,0,-2038
43.757176,64,0,-2043
43.766944,66,-2,-2052
43.776681,64,-2,-2040
43.786419,66,-6,-2040
43.796419,66,-2,-2056
43.806156,64,1,-2043
43.815924,76,-2,-2031
43.825662,82,-4,-2036
43.835399,73,-2,-2032
43.845399,73,-2,-2034
43.855168,71,8,-2045
43.864905,78,10,-2034
43.874643,80,3,-2038
43.884411,66,-2,-2050
43.894411,64,-2,-2031
43.904148,73,10,-2032
43.913886,76,7,-2038
43.923654,73,-6,-2025
43.933391,74,0,-2034
43.943391,74,8,-2043
43.953129,62,1,-2038
43.962897,67,-2,-2038
43.972635,74,7,-2047
43.982372,58,8,-2045
43.992372,58,7,-2036
44.002140,71,7,-2041
44.011878,80,5,-2045
44.021615,82,-2,-2029
44.031383,78,0,-2032
44.041383,82,1,-2045
44.051121,76,0,-2043
44.060858,64,0,-2041
44.070627,60,3,-2040
44.080364,64,8,-2036
44.090364,69,8,-2034
44.100102,67,1,-2032
44.109839,69,5,-2040
44.119607,69,3,-2036
44.129345,66,-6,-2032
44.139345,73,-6,-2043
44.149082,64,0,-2047
44.158850,58,1,-2052
44.168588,73,7,-2050
44.178326,71,5,-2043
44.188326,67,-6,-2052
44.198094,76,-2,-2056
44.207831,73,3,-2038
44.217569,64,-2,-2047
44.227306,69,-2,-2068
44.237306,83,8,-2043
44.247074,78,8,-2031
44.256474,60,-2,-2032
44.266608,66,0,-2032
44.276346,73,7,-2056
44.286114,66,3,-2063
44.296114,67,-6,-2034
44.305851,66,-8,-2032
44.315589,69,0,-2048
44.325357,83,5,-2038
44.335094,80,8,-2031
44.345094,83,8,-2054
44.354832,92,5,-2063
44.364600,71,3,-2040
44.374337,69,3,-2031
44.384106,83,1,-2036
44.394106,76,5,-2029
44.403843,83,10,-2029
44.413581,78,0,-2041
44.423349,67,-6,-2041
44.433086,78,1,-2029
44.443086,76,3,-2040
44.452824,69,3,-2056
44.462561,71,1,-2036
44.472329,71,0,-2029
44.482067,66,10,-2047
44.492067,76,7,-2043
44.501805,76,-4,-2045
44.511573,67,3,-2054
44.521310,76,14,-2048
44.531048,76,8,-2043
44.541048,66,0,-2047
44.550816,69,-2,-2048
44.560553,66,-2,-2050
44.570291,67,-4,-2043
44.580059,78,0,-2023
44.590059,73,3,-2040
44.599796,64,5,-2056
44.609534,73,10,-2038
44.619302,89,3,-2034
44.629040,82,-2,-2036
44.639040,67,-2,-2023
44.648777,71,0,-2032
44.658515,73,3,-2041
44.668283,76,7,-2032
44.678020,80,5,-2027
44.688020,69,-4,-2022
44.697758,74,-2,-2020
44.707495,80,3,-2031
44.717264,60,1,-2032
44.727001,71,7,-2032
44.737001,87,5,-2040
44.746739,64,-8,-2040
44.756507,69,-4,-2038
44.766244,85,3,-2056
44.775982,69,0,-2050
44.785982,71,0,-2018
44.795750,74,-4,-2038
44.805487,71,-8,-2056
44.815225,80,1,-2032
44.824993,76,7,-2041
44.834993,69,-2,-2059
44.844731,76,0,-2045
44.854468,76,1,-2016
44.864236,69,5,-2020
44.873974,69,5,-2040
44.883974,78,-8,-2036
44.893711,83,-2,-2047
44.903449,80,7,-2056
44.913217,73,1,-2045
44.922954,67,8,-2047
44.932954,64,10,-2041
44.942692,73,3,-2032
44.952460,80,3,-2034
44.962198,67,1,-2032
44.971935,62,5,-2027
44.981935,67,5,-2016
44.991703,76,-2,-2029
45.001441,91,1,-2054
45.011178,76,-4,-2043
45.020946,62,-11,-2018
45.030946,78,0,-2029
45.040315,83,1,-2040
45.050480,89,0,-2034
45.060218,82,8,-2056
45.069955,66,5,-2047
45.079723,74,-4,-2015
45.089723,83,5,-2034
45.099461,74,7,-2047
45.109198,66,-2,-2043
45.118966,62,-4,-2054
45.128704,66,12,-2047
45.138704,73,16,-2027
45.148441,76,3,-2025
45.158210,76,3,-2041
45.167947,78,3,-2047
45.177685,76,-4,-2031
45.187685,71,0,-2032
45.197453,73,0,-2043
45.207190,74,-2,-2045
45.216958,83,-4,-2045
45.226696,85,1,-2034
45.236696,69,1,-2032
45.246433,67,1,-2057
45.255833,69,5,-2040
45.265967,64,1,-2013
45.275735,62,-4,-2047
45.285473,67,3,-2057
45.295473,71,1,-2027
45.305210,64,-2,-2020
45.314978,60,0,-2038
45.324716,66,-2,-2041
45.334453,67,3,-2029
45.344453,67,1,-2032
45.354222,76,-11,-2050
45.363959,78,-2,-2048
45.373697,78,10,-2043
45.383465,69,0,-2040
45.393465,64,1,-2034
45.403202,82,8,-2043
45.412940,82,1,-2043
45.422708,66,-4,-2038
45.432445,62,-4,-2032
45.442445,69,1,-2029
45.452183,74,10,-2038
45.461951,83,12,-2054
45.471689,80,3,-2047
45.481426,67,-6,-2020
45.491426,67,-4,-2022
45.501194,73,0,-2059
45.510932,78,-2,-2068
45.520669,74,-2,-2032
45.530437,71,1,-2031
45.540437,71,0,-2048
45.550175,64,0,-2038
45.559912,62,-2,-2032
45.569680,51,-2,-2054
45.579418,62,0,-2057
45.589418,87,1,-2029
45.599156,69,7,-2032
45.608924,58,5,-2047
45.618661,69,-4,-2038
45.628399,66,-4,-2032
45.638399,67,0,-2038
45.648167,82,7,-2047
45.657904,71,7,-2041
45.667642,57,-2,-2029
45.677410,71,-4,-2040
45.687410,78,1,-2038
45.697148,71,1,-2022
45.706916,71,0,-2023
45.716653,69,-2,-2034
45.726391,73,1,-2045
45.736391,74,10,-2050
45.746159,74,5,-2031
45.755896,82,0,-2020
45.765634,74,3,-2022
45.775402,64,-2,-2040
45.785402,73,1,-2054
45.795139,78,3,-2023
45.804877,78,1,-2022
45.814615,76,10,-2052
45.824383,67,7,-2050
45.834383,64,7,-2045
45.844120,69,14,-2047
45.853858,73,0,-2050
45.863626,66,1,-2054
45.873363,69,17,-2045
45.883363,76,1,-2040
45.893101,73,-9,-2038
45.902869,66,-6,-2043
45.912607,66,-6,-2048
45.922344,69,-2,-2045
45.932344,67,-4,-2038
45.942112,78,3,-2040
45.951850,82,17,-2052
45.961618,73,8,-2048
45.971355,82,-4,-2034
45.981355,80,7,-2036
45.991093,78,16,-2043
46.000861,82,7,-2041
46.010598,64,-13,-2023
46.020336,69,-9,-2025
46.030336,82,5,-2041
46.040104,64,-2,-2034
46.049842,66,7,-2032
46.059579,91,7,-2032
46.069347,78,-8,-2031
46.079347,58,1,-2038
46.089085,76,3,-2040
46.098853,78,-4,-2040
46.108590,74,5,-2040
46.118328,91,7,-2038
46.128328,85,0,-2043
46.138066,71,8,-2041
46.147834,67,10,-2047
46.157571,69,-2,-2050
46.167309,80,-2,-2032
46.177309,76,-6,-2022
46.187046,62,-8,-2048
46.196814,58,5,-2063
46.206552,60,3,-2045
46.216289,62,-4,-2041
46.226289,73,5,-2041
46.236057,73,7,-2025
46.245795,58,7,-2027
46.255533,62,7,-2052
46.265270,66,1,-2063
46.275270,69,1,-2038
46.285038,74,3,-2027
46.294776,57,5,-2034
46.304513,60,0,-2025
46.314281,76,-4,-2029
46.324281,74,1,-2038
46.334019,74,5,-2029
46.343756,74,3,-2038
46.353494,69,0,-2043
46.363262,69,-2,-2031
46.373262,71,-4,-2038
46.383000,62,0,-2036
46.392737,71,-2,-2022
46.402505,74,-4,-2034
46.412243,66,5,-2050
46.422243,76,8,-2047
46.431980,78,-2,-2054
46.441718,64,-8,-2041
46.451486,66,1,-2023
46.461223,76,1,-2041
46.471223,69,-2,-2045
46.480961,57,10,-2029
46.490729,71,8,-2038
46.500467,71,0,-2040
46.510204,69,0,-2022
46.520204,85,-2,-2022
46.529972,85,3,-2036
46.539710,80,3,-2041
46.549447,82,-4,-2032
46.559215,69,-2,-2031
46.569215,60,5,-2038
46.578953,71,7,-2040
46.588691,74,3,-2047
46.598428,66,-2,-2043
46.608196,71,-4,-2038
46.618196,69,1,-2034
46.627934,57,-6,-2031
46.637671,55,-9,-2040
46.647439,62,1,-2043
46.657177,60,5,-2038
46.667177,58,5,-2036
46.676914,66,0,-2038
46.686682,67,-2,-2050
46.696420,73,5,-2045
46.706158,83,0,-2022
46.716158,78,-6,-2020
46.725926,58,3,-2032
46.735663,58,7,-2043
46.745401,85,3,-2050
46.755138,94,0,-2038
46.765138,85,7,-2031
46.774906,78,10,-2047
46.784644,80,5,-2040
46.794381,74,7,-2040
46.804149,76,1,-2043
46.814149,76,-2,-2020
46.823887,62,0,-2020
46.833625,80,-8,-2036
46.843393,85,-6,-2036
46.853130,66,3,-2041
46.863130,60,0,-2045
46.872868,64,0,-2038
46.882605,66,3,-2034
46.892373,60,1,-2043
46.902111,71,0,-2038
46.912111,73,3,-2031
46.921848,53,0,-2040
46.931617,60,-2,-2045
46.941354,73,1,-2036
46.951092,60,0,-2023
46.961092,58,-4,-2041
46.970829,71,5,-2061
46.980597,78,1,-2048
46.990335,78,-8,-2032
47.000072,76,-2,-2029
47.010072,74,1,-2031
47.019810,69,1,-2040
47.029578,55,0,-2036
47.039316,64,1,-2027
47.049053,69,5,-2034
47.059053,62,0,-2041
47.068821,71,5,-2040
47.078559,73,8,-2041
47.088296,73,-2,-2041
47.098064,71,0,-2050
47.108064,62,3,-2054
47.117802,73,3,-2045
47.127539,82,7,-2050
47.137277,69,0,-2050
47.147045,67,0,-2041
47.157045,83,10,-2040
47.166783,76,0,-2041
47.176520,67,-8,-2040
47.186288,73,0,-2040
47.196026,76,3,-2043
47.206026,76,3,-2040
47.215763,74,1,-2032
47.225501,82,3,-2032
47.235269,76,1,-2034
47.245280,71,5,-2031
47.255280,74,8,-2036
47.264773,66,0,-2032
47.274541,67,-8,-2022
47.284279,66,5,-2041
47.294016,60,12,-2057
47.304016,69,5,-2032
47.313754,66,1,-2025
47.323522,66,1,-2038
47.333260,74,-6,-2029
47.342997,83,7,-2023
47.352997,78,16,-2029
47.362765,62,-2,-2031
47.372503,57,-9,-2036
47.382240,60,1,-2043
47.392008,67,1,-2054
47.402008,71,0,-2048
47.411746,76,0,-2029
47.421483,82,0,-2034
47.431252,76,-2,-2052
47.440989,67,-8,-2048
47.450989,62,-2,-2041
47.460727,66,8,-2047
47.470495,66,0,-2041
47.480232,73,-11,-2027
47.489970,80,-4,-2036
47.499970,64,3,-2034
47.509738,74,-2,-2020
47.519475,78,0,-2036
47.529213,55,0,-2050
47.538951,62,-6,-2029
47.548951,76,-4,-2023
47.558719,69,-2,-2052
47.568456,62,-6,-2050
47.578194,69,-4,-2031
47.587962,82,8,-2034
47.597962,80,8,-2031
47.607699,71,8,-2041
47.617437,66,8,-2072
47.627205,69,-2,-2056
47.636942,83,0,-2027
47.646942,87,14,-2032
47.656680,78,8,-2040
47.666448,78,3,-2034
47.676186,74,-2,-2022
47.685923,64,-8,-2029
47.695923,62,5,-2032
47.705691,76,10,-2032
47.715429,78,-6,-2054
47.725166,80,-4,-2036
47.734934,91,12,-2025
47.744934,80,5,-2041
47.754672,62,-4,-2041
47.764410,76,5,-2047
47.774147,92,10,-2032
47.783915,76,8,-2027
47.793915,67,8,-2041
47.803653,71,3,-2031
47.813390,69,0,-2041
47.823128,74,0,-2031
47.832896,78,1,-2013
47.842896,74,5,-2032
47.852633,69,7,-2038
47.862371,71,3,-2045
47.872139,66,-4,-2045
47.881877,69,-2,-2036
47.891877,82,3,-2036
47.901614,73,-2,-2032
47.911352,66,3,-2041
47.921120,66,5,-2031
47.930857,64,0,-2020
47.940857,67,3,-2034
47.950595,64,5,-2040
47.960363,73,8,-2050
47.970100,74,5,-2043
47.979838,64,-8,-2020
47.989838,71,-4,-2038
47.999576,66,3,-2063
48.009344,57,1,-2041
48.019081,73,-4,-2015
48.028819,71,-2,-2023
48.038819,62,1,-2027
48.048587,71,3,-2031
48.058324,74,0,-2054
48.068062,71,-2,-2040
48.077830,69,-2,-2025
48.087830,58,-8,-2048
48.097567,60,-13,-2036
48.107305,71,-11,-2018
48.117043,71,1,-2025
48.126811,64,5,-2027
48.136811,66,1,-2032
48.146548,71,7,-2038
48.156286,66,3,-2040
48.166023,64,-2,-2034
48.175791,78,-2,-2034
48.185791,80,0,-2040
48.195529,76,3,-2036
48.205266,73,-2,-2038
48.215035,64,-2,-2040
48.224772,62,-4,-2034
48.234772,64,-8,-2034
48.244510,66,1,-2047
48.253909,69,5,-2050
48.264074,58,3,-2031
48.273811,66,1,-2025
48.283549,82,0,-2036
48.293549,64,-6,-2029
48.303317,66,-9,-2022
48.313055,74,1,-2016
48.322792,67,8,-2029
48.332530,69,10,-2032
48.342530,92,10,-2023
48.352298,107,12,-2041
48.362035,85,10,-2054
48.371773,71,3,-2050
48.381541,76,0,-2041
48.391541,76,0,-2036
48.401278,76,-6,-2041
48.411016,80,-8,-2032
48.420753,71,-2,-2036
48.430522,73,5,-2047
48.440522,87,10,-2040
48.450259,76,1,-2050
48.459997,55,-2,-2054
48.469765,57,0,-2040
48.479502,67,0,-2032
48.489502,73,0,-2023
48.499240,73,-2,-2025
48.509008,67,1,-2043
48.518745,62,0,-2036
48.528483,71,-6,-2038
48.538483,74,3,-2052
48.548221,73,7,-2034
48.557989,82,1,-2038
48.567726,80,0,-2040
48.577464,69,0,-2020
48.587464,67,0,-2023
48.597232,64,-2,-2015
48.606969,64,7,-2027
48.616707,66,12,-2057
48.626444,69,3,-2048
48.636444,71,5,-2032
48.646212,67,7,-2034
48.655950,80,1,-2043
48.665688,80,10,-2020
48.675425,74,10,-2015
48.685425,85,-2,-2034
48.695193,82,0,-2040
48.704931,64,1,-2054
48.714668,69,1,-2023
48.724436,78,1,-2013
48.734436,69,-6,-2050
48.744174,67,0,-2029
48.753911,78,0,-2015
48.763649,74,-2,-2050
48.773417,66,-2,-2047
48.783417,66,-11,-2022
48.793155,67,-8,-2023
48.802892,62,0,-2025
48.812660,71,-2,-2029
48.822398,74,-2,-2034
48.832398,62,8,-2032
48.842135,67,5,-2040
48.851873,73,-6,-2050
48.861641,64,-2,-2048
48.871378,69,3,-2045
48.881378,80,0,-2041
48.891116,85,1,-2040
48.900884,87,12,-2045
48.910622,76,8,-2048
48.920359,67,-4,-2041
48.930359,71,0,-2048
48.940097,76,3,-2052
48.949865,78,-4,-2029
48.959602,71,1,-2032
48.969340,66,5,-2054
48.979340,62,0,-2038
48.989108,64,-2,-2036
48.998846,78,-2,-2052
49.008583,89,1,-2041
49.018351,71,3,-2032
49.028351,60,-2,-2041
49.038089,69,-4,-2038
49.047826,69,1,-2034
49.057564,82,7,-2045
49.067332,85,3,-2041
49.077332,66,0,-2045
49.087069,78,1,-2050
49.096807,82,-2,-2032
49.106575,66,-4,-2025
49.116313,71,0,-2022
49.126313,74,1,-2029
49.136081,69,-2,-2057
49.145818,62,-2,-2056
49.155556,58,1,-2032
49.165324,66,1,-2025
49.175324,62,0,-2034
49.185061,60,5,-2052
49.194799,60,7,-2059
49.204567,58,-2,-2040
49.214305,64,-6,-2031
49.224305,64,0,-2048
49.234042,66,3,-2045
49.243810,76,8,-2027
49.253210,67,5,-2043
49.263344,67,-2,-2054
49.273081,71,0,-2031
49.283081,60,0,-2016
49.292849,64,-6,-2029
49.302587,69,0,-2045
49.312325,69,10,-2056
49.322093,74,8,-2054
49.332093,76,0,-2031
49.341830,71,-4,-2038
49.351568,85,5,-2038
49.361305,85,16,-2020
49.371073,66,8,-2041
49.381073,66,0,-2048
49.390811,66,0,-2043
49.400548,62,1,-2056
49.410316,74,7,-2059
49.420054,76,5,-2045
49.430054,76,0,-2027
49.439822,83,1,-2022
49.449560,74,-6,-2029
49.459297,76,-9,-2029
49.469035,85,0,-2032
49.479035,83,3,-2034
49.488803,80,1,-2025
49.498540,80,-4,-2034
49.508278,80,-2,-2047
49.518046,74,3,-2043
49.528046,73,-4,-2040
49.537784,73,-6,-2032
49.547521,66,1,-2040
49.557289,57,5,-2056
49.567027,58,7,-2045
49.577027,74,8,-2043
49.586764,76,3,-2061
49.596502,69,1,-2061
49.606270,67,-2,-2045
49.616007,71,-4,-2041
49.626007,74,-2,-2036
49.635775,71,-4,-2020
49.645513,78,-2,-2031
49.655251,73,1,-2047
49.665019,62,1,-2048
49.675019,71,-4,-2048
49.684756,66,-8,-2038
49.694494,67,-4,-2029
49.704231,83,-4,-2032
49.713999,73,-6,-2023
49.723999,69,0,-2022
49.733737,78,0,-2045
49.743474,74,-2,-2054
49.753243,78,1,-2061
49.762980,80,1,-2045
49.772980,76,-4,-2020
49.782718,78,1,-2047
49.792486,66,3,-2065
49.802223,60,-11,-2038
49.811961,74,-9,-2025
49.821961,80,8,-2047
49.831729,73,5,-2057
49.841466,73,-9,-2048
49.851204,74,0,-2045
49.860941,76,7,-2027
49.870941,83,-2,-2018
49.880710,78,0,-2034
49.890447,66,0,-2038
49.900185,66,1,-2036
49.909953,67,12,-2038
49.919953,71,12,-2032
49.929690,69,5,-2027
49.939428,62,1,-2040
49.949196,67,3,-2059
49.958933,74,7,-2063
49.968933,74,8,-2050
49.978671,76,8,-2032
49.988439,73,7,-2038
49.998177,73,3,-2047
50.007914,73,-2,-2036
50.017914,60,-2,-2036
50.027682,64,10,-2036
50.037420,80,16,-2029
50.047157,76,0,-2025
50.056895,64,-8,-2025
50.066895,64,1,-2040
50.076663,60,3,-2040
50.086400,57,1,-2027
50.096169,62,1,-2045
50.105906,71,0,-2054
50.115906,69,-2,-2031
50.125644,66,-2,-2034
50.135412,76,5,-2056
50.145149,78,3,-2059
50.154887,67,5,-2047
50.164887,62,16,-2045
50.174655,58,5,-2057
50.184392,60,-6,-2040
50.194130,64,-6,-2020
50.203898,67,-2,-2036
50.213898,74,10,-2047
50.223636,74,3,-2034
50.233373,57,3,-2038
50.243141,55,19,-2041
50.252541,78,14,-2023
50.262675,78,1,-2018
50.272675,66,3,-2036
50.282412,76,7,-2041
50.292180,80,10,-2029
50.301918,73,12,-2025
50.311656,64,5,-2040
50.321656,58,-2,-2059
50.331424,73,0,-2050
50.341161,80,0,-2031
50.350899,67,-6,-2025
50.360667,73,-4,-2016
50.370667,87,1,-2018
50.380404,85,-4,-2029
50.390142,69,-9,-2031
50.399910,62,5,-2034
50.409648,69,8,-2032
50.419648,69,-4,-2022
50.429385,71,-4,-2016
50.439153,80,1,-2032
50.448891,78,-4,-2041
50.458628,71,0,-2027
50.468628,73,7,-2022
50.478396,62,5,-2036
50.488134,83,3,-2057
50.497902,101,-4,-2038
50.507639,71,-6,-2023
50.517639,64,0,-2061
50.527377,76,-4,-2048
50.537145,78,7,-2032
50.546883,62,8,-2057
50.556620,53,0,-2052
50.566620,67,10,-2048
50.576388,69,7,-2054
50.586126,69,-2,-2027
50.595863,73,-4,-2025
50.605631,66,-9,-2048
50.615631,67,1,-2034
50.625369,82,8,-2016
50.635137,76,-4,-2034
50.644875,64,-4,-2050
50.654612,71,12,-2054
50.664612,82,10,-2048
50.674380,78,3,-2029
50.684118,80,7,-2034
50.693855,80,1,-2032
50.703623,66,-6,-2020
50.713623,69,1,-2047
50.723361,74,7,-2065
50.733098,71,5,-2045
50.742867,69,-2,-2031
50.752604,74,1,-2032
50.762604,78,7,-2031
50.772342,71,-6,-2020
50.782110,76,8,-2032
50.791847,85,23,-2043
50.801585,87,3,-2029
50.811585,82,-2,-2032
50.821322,73,10,-2036
50.831090,85,12,-2032
50.840828,76,5,-2040
50.850566,67,7,-2036
50.860566,80,17,-2036
50.870334,74,12,-2041
50.880071,76,0,-2036
50.889839,74,-2,-2034
50.899577,71,0,-2032
50.909577,71,-2,-2036
50.919314,71,0,-2031
50.929082,76,-2,-2022
50.938820,64,-2,-2040
50.948557,51,5,-2052
50.958557,62,1,-2034
50.968295,73,-4,-2032
50.978063,78,1,-2047
50.987801,80,-8,-2040
50.997538,74,-13,-2029
51.007538,69,3,-2043
51.017306,62,1,-2040
51.027044,57,-11,-2023
51.036812,57,-8,-2027
51.046549,58,-2,-2020
51.056549,64,3,-2016
51.066287,73,5,-2043
51.076024,76,5,-2032
51.085793,67,8,-2025
51.095530,64,8,-2057
51.105530,64,0,-2050
51.115268,64,-4,-2027
51.125036,67,1,-2040
51.134773,71,-2,-2059
51.144511,67,-6,-2040
51.154511,58,7,-2016
51.164279,60,10,-2025
51.174016,71,-9,-2041
51.183754,78,-9,-2045
51.193522,87,3,-2041
51.203522,82,3,-2045
51.213260,67,3,-2043
51.222997,62,-2,-2038
51.232765,58,1,-2045
51.242503,60,5,-2034
51.252503,67,0,-2023
51.262240,64,0,-2023
51.272008,55,8,-2031
51.281746,64,12,-2048
51.291483,74,8,-2045
51.301483,73,7,-2036
51.311221,67,1,-2040
51.320989,66,-4,-2040
51.330727,69,0,-2022
51.340464,67,0,-2032
51.350464,80,-6,-2065
51.360232,87,0,-2041
51.369970,71,1,-2023
51.379707,71,-8,-2040
51.389445,74,-4,-2045
51.399445,64,1,-2032
51.409213,57,-6,-2020
51.418951,62,-2,-2031
51.428688,73,0,-2029
51.438456,73,0,-2034
51.448456,62,8,-2059
51.458194,69,3,-2040
51.467931,80,-6,-2025
51.477669,76,3,-2034
51.487437,76,12,-2031
51.497437,74,7,-2025
51.507174,69,3,-2031
51.516912,71,3,-2031
51.526649,80,-2,-2031
51.536387,89,1,-2050
51.546387,73,1,-2041
51.556155,62,-6,-2015
51.565893,67,-2,-2034
51.575630,78,1,-2045
51.585398,83,7,-2032
51.595398,71,14,-2045
51.605136,74,10,-2047
51.614873,76,3,-2032
51.624611,62,0,-2048
51.634379,66,3,-2056
51.644379,67,1,-2034
51.654117,66,3,-2032
51.663854,76,8,-2034
51.673622,80,0,-2029
51.683360,74,-4,-2036
51.693360,74,1,-2040
51.703097,67,-2,-2029
51.712865,66,-2,-2029
51.722603,76,3,-2043
51.732340,71,1,-2041
51.742340,67,5,-2029
51.752108,78,5,-2034
51.761846,82,-6,-2041
51.771584,71,0,-2034
51.781352,60,5,-2034
51.791352,58,-9,-2031
51.801089,66,-9,-2018
51.810827,71,-2,-2031
51.820564,69,1,-2043
51.830332,73,5,-2047
51.840332,80,8,-2052
51.850070,74,12,-2032
51.859807,62,1,-2020
51.869576,66,-2,-2045
51.879313,78,7,-2056
51.889313,76,12,-2043
51.899051,82,14,-2047
51.908788,80,3,-2043
51.918556,71,-6,-2034
51.928294,71,0,-2032
51.938294,67,7,-2022
51.948031,73,14,-2032
51.957799,78,14,-2040
51.967537,74,3,-2032
51.977274,76,1,-2036
51.987274,66,3,-2038
51.997012,62,-4,-2034
52.006780,73,-6,-2045
52.016518,73,8,-2045
52.026255,71,7,-2034
52.036255,83,1,-2036
52.046023,87,8,-2034
52.055761,76,-4,-2032
52.065498,64,-13,-2032
52.075266,57,-8,-2041
52.085266,71,-4,-2056
52.095004,80,1,-2047
52.104742,62,1,-2031
52.114479,69,0,-2025
52.124247,78,-4,-2036
52.134247,69,0,-2045
52.143985,78,12,-2038
52.153722,80,5,-2041
52.163490,76,-6,-2034
52.173228,71,-2,-2031
52.183228,69,1,-2041
52.192965,71,-2,-2038
52.202733,66,-2,-2038
52.212471,80,12,-2036
52.222209,87,12,-2034
52.232209,71,3,-2043
52.241977,74,7,-2041
52.251591,96,0,-2032
52.261481,87,-2,-2032
52.271249,71,0,-2023
52.280987,87,-4,-2025
52.290987,91,12,-2045
52.300724,74,19,-2048
52.310492,66,10,-2050
52.320230,71,8,-2038
52.329967,83,5,-2034
52.339967,69,12,-2050
52.349735,58,12,-2040
52.359473,73,1,-2034
52.369211,78,3,-2048
52.378979,78,3,-2052
52.388979,71,0,-2048
52.398716,64,0,-2031
52.408454,64,-6,-2029
52.418222,62,-9,-2043
52.427959,57,-6,-2043
52.437959,64,1,-2034
52.447697,78,1,-2034
52.457465,73,-2,-2040
52.467202,62,-4,-2036
52.476940,71,0,-2031
52.486940,76,1,-2041
52.496708,66,-6,-2038
52.506446,62,0,-2032
52.516183,67,10,-2040
52.525921,64,7,-2050
52.535921,60,1,-2054
52.545689,69,-4,-2023
52.555426,73,1,-2023
52.565164,76,8,-2041
52.574901,78,3,-2045
52.584901,67,0,-2054
52.594670,66,1,-2040
52.604407,73,1,-2038
52.614145,76,0,-2050
52.623913,78,-4,-2034
52.633913,76,-6,-2027
52.643650,66,0,-2040
52.653418,67,-6,-2038
52.663156,73,-6,-2043
52.672893,66,1,-2045
52.682893,66,-6,-2025
52.692631,67,-8,-2031
52.702399,66,1,-2034
52.712137,69,-6,-2020
52.721874,78,-11,-2029
52.731874,80,1,-2050
52.741642,74,1,-2050
52.751380,78,-4,-2041
52.761117,74,-4,-2034
52.770885,60,7,-2038
52.780885,76,12,-2054
52.790623,89,-4,-2043
52.800360,83,1,-2027
52.810128,78,14,-2036
52.819866,73,10,-2032
52.829866,71,8,-2020
52.839604,62,-2,-2023
52.849372,69,-6,-2036
52.859109,87,1,-2040
52.868847,78,-2,-2040
52.878847,62,1,-2040
52.888615,80,5,-2034
52.898352,82,-9,-2034
52.908090,67,-17,-2022
52.917858,73,-6,-2025
52.927858,71,7,-2047
52.937596,83,7,-2036
52.947333,92,1,-2022
52.957071,71,3,-2025
52.966839,69,5,-2031
52.976839,85,8,-2023
52.986576,76,7,-2025
52.996314,71,1,-2043
53.006082,67,1,-2045
53.015819,67,3,-2043
53.025819,82,5,-2043
53.035557,80,1,-2052
53.045325,64,1,-2068
53.055063,66,1,-2047
53.064800,82,-2,-2029
53.074800,83,0,-2025
53.084538,69,-4,-2023
53.094306,69,-11,-2048
53.104043,74,-9,-2041
53.113781,64,-4,-2020
53.123781,64,-2,-2038
53.133518,71,0,-2043
53.143286,66,-2,-2038
53.153024,66,-6,-2036
53.162762,69,-4,-2036
53.172762,76,-2,-2040
53.182530,87,0,-2041
53.192267,87,8,-2045
53.202005,73,12,-2045
53.211742,73,14,-2045
53.221742,74,8,-2048
53.231510,78,1,-2034
53.241248,80,3,-2027
53.250647,67,-2,-2040
53.260782,64,-2,-2050
53.270550,67,8,-2057
53.280550,69,7,-2045
53.290287,71,-2,-2036
53.300025,74,-4,-2038
53.309762,69,-6,-2025
53.319530,67,-9,-2025
53.329530,82,7,-2041
53.339268,78,8,-2034
53.349005,80,14,-2016
53.358774,89,32,-2036
53.368511,74,16,-2048
53.378511,62,1,-2027
53.388249,64,1,-2027
53.397986,74,0,-2034
53.407754,71,-4,-2034
53.417492,71,-6,-2032
53.427492,87,0,-2029
53.437229,74,-2,-2032
53.446997,69,1,-2029
53.456735,82,14,-2031
53.466472,73,5,-2032
53.476472,64,-6,-2038
53.486210,73,0,-2054
53.495978,74,-2,-2045
53.505716,64,-4,-2036
53.515453,67,1,-2032
53.525453,67,14,-2038
53.535221,58,17,-2052
53.544959,67,3,-2034
53.554696,71,7,-2029
53.564464,67,14,-2056
53.574464,71,-2,-2057
53.584202,71,-4,-2038
53.593940,74,3,-2027
53.603677,74,3,-2031
53.613445,64,3,-2038
53.623445,60,0,-2040
53.633183,64,-2,-2036
53.642920,69,0,-2016
53.652658,85,5,-2009
53.662426,80,1,-2034
53.672426,53,0,-2050
53.682163,58,5,-2036
53.691901,74,5,-2027
53.701669,80,-2,-2034
53.711407,85,1,-2034
53.721407,74,8,-2041
53.731175,67,3,-2047
53.740912,71,5,-2038
53.750650,62,10,-2045
53.760387,64,7,-2047
53.770387,73,1,-2043
53.780155,64,0,-2054
53.789893,60,-2,-2048
53.799630,69,-2,-2032
53.809399,66,1,-2048
53.819399,69,5,-2057
53.829136,71,5,-2031
53.838874,64,3,-2050
53.848642,64,-4,-2072
53.858379,74,-6,-2047
53.868379,78,0,-2032
53.878117,74,5,-2031
53.887885,82,8,-2036
53.897622,87,5,-2029
53.907360,74,1,-2027
53.917360,71,-2,-2040
53.927097,82,1,-2032
53.936866,76,-2,-2023
53.946603,64,-8,-2020
53.956341,69,1,-2025
53.966341,78,7,-2038
53.976109,76,-2,-2043
53.985846,67,-4,-2040
53.995584,62,0,-2023
54.005321,69,0,-2031
54.015321,64,-2,-2052
54.025089,60,-8,-2040
54.034827,67,-9,-2029
54.044565,62,3,-2034
54.054333,62,5,-2031
54.064333,71,-8,-2050
54.074070,67,-4,-2059
54.083808,60,0,-2040
54.093576,69,1,-2041
54.103313,74,3,-2043
54.113313,74,-4,-2031
54.123051,71,-2,-2029
54.132819,67,0,-2025
54.142556,73,0,-2023
54.152294,87,7,-2032
54.162294,89,5,-2038
54.172062,69,3,-2041
54.181800,73,12,-2045
54.191537,83,3,-2034
54.201275,73,-4,-2023
54.211275,64,5,-2038
54.221043,60,5,-2041
54.230780,67,0,-2038
54.240518,66,-2,-2036
54.249917,55,-2,-2054
54.260082,60,0,-2066
54.270082,67,-2,-2031
54.279820,64,-2,-2029
54.289557,64,3,-2048
54.299295,73,1,-2045
54.309063,69,-2,-2050
54.319063,71,0,-2048
54.328800,73,-2,-2034
54.338538,71,0,-2032
54.348275,80,-4,-2041
54.358044,74,-6,-2036
54.368044,57,5,-2023
54.377781,60,-2,-2031
54.387519,73,0,-2043
54.397256,74,10,-2036
54.406994,67,0,-2022
54.416994,62,3,-2032
54.426762,66,7,-2034
54.436499,74,3,-2032
54.446237,83,5,-2038
54.455974,80,0,-2031
54.465974,62,-2,-2020
54.475743,66,0,-2023
54.485480,74,8,-2043
54.495218,67,10,-2052
54.504955,62,7,-2043
54.514955,71,3,-2036
54.524723,74,1,-2029
54.534461,64,5,-2036
54.544198,55,1,-2032
54.553936,64,-9,-2018
54.563936,74,-6,-2031
54.573673,80,0,-2031
54.583441,78,-4,-2031
54.593179,64,-11,-2038
54.602917,71,1,-2034
54.612917,82,23,-2038
54.622654,64,8,-2031
54.632422,64,-8,-2025
54.642160,74,1,-2040
54.651897,71,7,-2043
54.661897,67,7,-2041
54.671635,67,-6,-2041
54.681372,80,-8,-2034
54.691140,64,-4,-2041
54.700878,55,-4,-2048
54.710878,76,1,-2036
54.720616,71,7,-2038
54.730384,69,1,-2054
54.740121,73,0,-2054
54.749859,69,3,-2050
54.759859,82,7,-2047
54.769596,73,8,-2036
54.779364,60,3,-2032
54.789102,67,-2,-2034
54.798839,64,-2,-2038
54.808839,69,1,-2043
54.818607,82,8,-2047
54.828345,71,8,-2048
54.838083,69,1,-2034
54.847820,64,3,-2031
54.857820,57,3,-2045
54.867588,64,-8,-2043
54.877326,66,-6,-2038
54.887063,67,3,-2038
54.896801,66,1,-2029
54.906801,60,1,-2027
54.916569,71,14,-2038
54.926306,91,8,-2032
54.936044,76,-6,-2023
54.945782,69,0,-2040
54.955782,87,5,-2043
54.965519,69,1,-2031
54.975287,66,0,-2043
54.985025,82,-4,-2050
54.994762,66,-6,-2023
55.004762,66,1,-2016
55.014500,74,-2,-2032
55.024268,57,-13,-2029
55.034005,62,1,-2027
55.043743,80,12,-2036
55.053743,60,1,-2036
55.063481,51,0,-2048
55.073249,71,5,-2048
55.082986,66,8,-2038
55.092754,49,8,-2057
55.102754,66,0,-2057
55.112492,78,0,-2034
55.122229,69,-2,-2034
55.131967,66,-4,-2040
55.141735,67,-2,-2040
55.151735,73,5,-2043
55.161472,76,8,-2038
