;Title, http://www.gcdataconcepts.com, x16-1d, ADXL345
;Version, 1877, Build date, Jan  8 2020,  SN:CCDC4016ECDDBE3
;Start_time, 2022-11-15, 18:53:55.418
;Uptime, 4,sec,  Vbat, 1426, mv, EOL, 1100, mv
;SampleRate, 200,Hz
;Deadband, 0, counts
;DeadbandTimeout, 0.000,sec
;Time, Ax, Ay, Az
0.77362,1110,-392,1455
0.82186,1137,-343,1562
0.87041,1076,-158,1744
0.92041,949,-204,1847
0.96895,774,-245,1806
0.101750,865,49,1605
0.106750,1032,155,1421
0.111574,969,49,1319
0.116429,1032,-68,1394
0.121429,1110,-188,1565
0.126284,1083,-140,1594
0.131139,1223,-75,1790
0.136139,1199,-133,2124
0.140963,1010,-183,2130
0.145818,1040,-200,1976
0.150818,1173,-58,1801
0.155672,1215,135,1662
0.160527,1107,53,1631
0.165527,1015,42,1349
0.170351,1090,296,1108
0.175206,1107,341,1310
0.180206,996,151,1544
0.185061,955,-2,1465
0.189885,1044,103,1267
0.194885,1180,221,1298
0.199740,1174,1,1494
0.204594,1012,89,1748
0.209594,1048,521,1876
0.214449,1126,569,1835
0.219304,944,542,1824
0.224304,917,698,1837
0.229128,1028,715,1803
0.233983,982,576,1783
0.238983,982,480,1730
0.243838,1023,510,1598
0.248662,1003,460,1524
0.253662,1015,373,1403
0.258516,1082,441,1342
0.263371,1069,503,1556
0.268371,1017,446,1819
0.273226,974,307,1810
0.278050,901,333,1581
0.283050,976,507,1494
0.287905,1092,505,1505
0.292760,1048,483,1474
0.297760,1005,528,1544
0.302584,996,537,1640
0.307439,987,633,1644
0.312439,973,849,1676
0.317293,898,932,1739
0.322148,757,876,1655
0.327148,765,953,1528
0.331972,894,949,1530
0.336827,858,824,1589
0.341827,860,835,1560
0.346682,924,842,1476
0.351506,930,851,1469
0.356506,973,835,1574
0.361361,942,778,1610
0.366215,871,844,1514
0.371215,837,899,1489
0.376040,780,896,1498
0.380894,728,930,1440
0.385894,712,983,1399
0.390749,726,1019,1419
0.395573,764,1037,1467
0.400573,792,1108,1535
0.405428,799,1133,1655
0.410283,755,1139,1619
0.415283,651,1226,1490
0.420107,671,1196,1576
0.424962,694,1126,1587
0.429962,648,1192,1481
0.434817,753,1240,1492
0.439641,789,1155,1487
0.444641,682,1083,1412
0.449495,662,1089,1349
0.454350,594,1110,1274
0.459350,501,1244,1262
0.464174,530,1383,1349
0.469029,471,1403,1346
0.474029,430,1401,1371
0.478884,510,1414,1451
0.483739,494,1478,1394
0.488739,408,1514,1290
0.493563,366,1456,1201
0.498418,398,1455,1214
0.503418,349,1519,1271
0.508272,216,1540,1194
0.513097,235,1524,1140
0.518097,294,1594,1199
0.522951,242,1698,1221
0.527806,233,1674,1208
0.532806,246,1608,1187
0.537630,221,1562,1137
0.542485,226,1533,1119
0.547485,192,1619,1133
0.552340,124,1755,1160
0.557164,71,1823,1165
0.562164,23,1844,1128
0.567019,21,1874,1082
0.571873,21,1892,1039
0.576873,-13,1839,983
0.581698,-49,1790,903
0.586214,-97,1821,883
0.591466,-104,1858,892
0.596466,-79,1849,835
0.601290,-129,1773,844
0.606145,-193,1735,864
0.611145,-195,1731,840
0.615969,-177,1664,853
0.620824,-167,1648,823
0.625824,-183,1692,773
0.630678,-227,1733,719
0.635533,-281,1735,614
0.640533,-311,1726,640
0.645357,-300,1790,780
0.650212,-304,1814,646
0.655212,-334,1783,503
0.660067,-365,1773,544
0.664891,-427,1756,478
0.669891,-472,1755,441
0.674746,-470,1762,383
0.679600,-533,1780,285
0.684600,-616,1837,328
0.689455,-656,1833,353
0.694279,-709,1771,310
0.699279,-745,1762,314
0.704134,-720,1728,317
0.708989,-706,1706,269
0.713989,-741,1801,205
0.718813,-766,1828,230
0.723668,-783,1787,283
0.728668,-825,1833,296
0.733523,-840,1905,342
0.738347,-811,1949,355
0.743347,-816,1969,274
0.748202,-822,1944,237
0.753056,-756,1878,249
0.758056,-825,1815,137
0.762880,-1095,1751,62
0.767735,-1191,1708,53
0.772735,-1191,1714,-61
0.777590,-1341,1656,-59
0.782414,-1413,1599,7
0.787414,-1343,1621,-42
0.792269,-1352,1626,5
0.797124,-1393,1617,30
0.802124,-1374,1583,-33
0.806948,-1397,1517,-45
0.811803,-1434,1476,-47
0.816803,-1445,1480,-83
0.821657,-1463,1533,-97
0.826512,-1491,1533,-75
0.831512,-1504,1462,-77
0.836336,-1474,1415,-40
0.841191,-1470,1383,-25
0.846191,-1472,1389,-65
0.851046,-1415,1424,-88
0.855870,-1413,1428,-97
0.860870,-1502,1423,-109
0.865387,-1584,1371,-133
0.870269,-1624,1339,-165
0.875152,-1627,1378,-172
0.880404,-1649,1406,-159
0.885258,-1690,1451,-174
0.890258,-1679,1476,-163
0.895083,-1675,1428,-115
0.899937,-1661,1330,-140
0.904937,-1613,1258,-209
0.909792,-1661,1258,-183
0.914616,-1715,1244,-81
0.919616,-1599,1212,-45
0.924471,-1429,1214,-31
0.929326,-1377,1180,7
0.934326,-1441,1140,8
0.939150,-1574,1140,-4
0.944005,-1631,1137,-77
0.949005,-1575,1164,-124
0.953859,-1611,1212,-102
0.958684,-1722,1183,-140
0.963684,-1781,1132,-161
0.968538,-1756,1132,-186
0.973393,-1690,1119,-213
0.978393,-1699,1090,-177
0.983217,-1722,1042,-175
0.988072,-1706,958,-175
0.993072,-1766,858,-163
0.997927,-1831,764,-167
1.2751,-1827,685,-167
1.7751,-1882,628,-152
1.12606,-1950,680,-134
1.17461,-1966,805,-161
1.22461,-1970,864,-213
1.27285,-1991,869,-236
1.32140,-2048,873,-249
1.37140,-2052,840,-247
1.41994,-2043,773,-238
1.46818,-2070,701,-275
1.51818,-2043,630,-270
1.56673,-2015,576,-220
1.61528,-2041,492,-233
1.66528,-2057,394,-250
1.71352,-2056,326,-236
1.76207,-2072,260,-229
1.81207,-2073,212,-233
1.86062,-2073,169,-240
1.90886,-2132,162,-250
1.95886,-2163,212,-234
1.100741,-2161,239,-240
1.105595,-2222,230,-277
1.110595,-2268,189,-254
1.115420,-2291,128,-243
1.120274,-2331,76,-292
1.125274,-2345,10,-325
1.130129,-2366,-40,-340
1.134953,-2406,-29,-295
1.139953,-2432,-38,-270
1.144808,-2450,-68,-325
1.149663,-2418,-34,-343
1.154663,-2352,-38,-352
1.159487,-2300,-100,-384
1.164342,-2195,-142,-368
1.169342,-2075,-193,-297
1.174196,-2066,-267,-238
1.179021,-2122,-342,-218
1.184021,-2123,-379,-190
1.188875,-2102,-386,-165
1.193730,-2077,-392,-183
1.198730,-2016,-408,-177
1.203554,-1984,-424,-172
1.208409,-1965,-442,-234
1.213409,-1931,-493,-242
1.218233,-1934,-540,-197
1.223088,-1982,-568,-206
1.228088,-2004,-588,-204
1.232943,-1981,-600,-213
1.237767,-1970,-652,-206
1.242767,-1927,-683,-175
1.247622,-1898,-693,-204
1.252476,-1906,-763,-213
1.257476,-1900,-845,-209
1.262331,-1902,-943,-242
1.267155,-1870,-995,-249
1.272155,-1854,-997,-242
1.277010,-1868,-1072,-259
1.281865,-1824,-1106,-263
1.286865,-1784,-1133,-263
1.291689,-1772,-1227,-288
1.296544,-1740,-1202,-274
1.301544,-1811,-1202,-225
1.306399,-1904,-1338,-295
1.311223,-1865,-1393,-333
1.316223,-1827,-1363,-300
1.321078,-1815,-1293,-345
1.325932,-1756,-1141,-308
1.330932,-1713,-1033,-254
1.335756,-1695,-1015,-249
1.340611,-1629,-1029,-259
1.345611,-1616,-1088,-277
1.350466,-1697,-1141,-252
1.355290,-1691,-1175,-274
1.360290,-1649,-1186,-297
1.365145,-1677,-1174,-265
1.370000,-1665,-1229,-258
1.375000,-1616,-1309,-292
1.379824,-1581,-1384,-333
1.384679,-1500,-1488,-345
1.389679,-1468,-1557,-302
1.394533,-1500,-1599,-265
1.399358,-1499,-1618,-281
1.404358,-1499,-1593,-286
1.409212,-1515,-1556,-270
1.414067,-1520,-1524,-283
1.419067,-1493,-1506,-288
1.423891,-1438,-1502,-256
1.428746,-1418,-1536,-249
1.433746,-1436,-1545,-281
1.438570,-1366,-1540,-258
1.443425,-1297,-1693,-225
1.448425,-1232,-1704,-186
1.453280,-1006,-1350,-161
1.458104,-991,-1340,-281
1.463104,-1241,-1690,-245
1.467959,-1299,-1674,-175
1.472813,-1215,-1547,-304
1.477813,-1138,-1591,-338
1.482638,-1063,-1604,-295
1.487492,-1018,-1588,-249
1.492492,-1027,-1554,-242
1.497317,-1056,-1557,-275
1.502171,-1031,-1647,-274
1.507171,-966,-1781,-267
1.512026,-904,-1897,-240
1.516850,-909,-1945,-193
1.521850,-913,-2023,-104
1.526705,-820,-2111,16
1.531529,-747,-2098,-65
1.536529,-708,-2129,-145
1.541384,-665,-2231,0
1.546239,-688,-2256,30
1.551239,-670,-2179,-33
1.556063,-559,-2093,-17
1.560918,-515,-2113,87
1.565918,-493,-2118,149
1.570742,-388,-1965,-2
1.575597,-274,-1840,-77
1.580597,-250,-1852,48
1.585113,-274,-1840,101
1.590334,-233,-1790,57
1.595189,-231,-1770,74
1.600189,-299,-1781,126
1.605013,-290,-1816,83
1.609868,-254,-1831,39
1.614868,-256,-1872,107
1.619723,-224,-1963,119
1.624547,-195,-2013,130
1.629547,-215,-2047,237
1.634401,-67,-2066,164
1.639256,96,-2050,24
1.644256,58,-2097,110
1.648742,153,-2165,157
1.653994,312,-2138,114
1.658849,314,-2123,192
1.663849,326,-2193,219
1.668673,369,-2211,176
1.673527,364,-2141,221
1.678527,371,-2088,299
1.683382,378,-2081,255
1.688206,333,-2081,144
1.693206,317,-2077,105
1.698061,369,-2025,99
1.702916,417,-1997,112
1.707916,378,-2029,110
1.712740,262,-2061,107
1.717595,232,-2104,132
1.722595,292,-2125,108
1.727450,357,-2113,51
1.732274,421,-2116,69
1.737274,471,-2143,98
1.742129,489,-2172,46
1.746983,424,-2200,99
1.751983,441,-2257,105
1.756807,474,-2325,51
1.761662,205,-2188,380
1.766662,198,-2045,398
1.771517,582,-2161,-34
1.776341,701,-2265,-18
1.781341,648,-2336,76
1.786196,680,-2261,-102
1.791051,726,-2113,-63
1.796051,726,-2079,98
1.800875,687,-1986,51
1.805730,692,-1931,-18
1.810730,801,-1906,5
1.815584,874,-1850,48
1.820409,849,-1865,82
1.825409,824,-1825,155
1.830263,819,-1720,221
1.835118,815,-1679,241
1.840118,862,-1690,239
1.844942,921,-1768,242
1.849797,948,-1818,296
1.854797,946,-1777,391
1.859652,914,-1715,560
1.864476,919,-1618,682
1.869476,948,-1491,687
1.874331,964,-1359,683
1.879185,999,-1263,658
1.884185,1032,-1216,592
1.889010,1078,-1220,517
1.893864,1162,-1227,435
1.898864,1210,-1170,394
1.903689,1208,-1125,424
1.908543,1231,-1172,469
1.913543,1308,-1279,498
1.918398,1292,-1424,466
1.923222,1326,-1574,523
1.928222,1706,-1574,621
1.933077,1749,-1572,423
1.937932,1242,-1707,144
1.942932,1065,-1593,114
1.947756,1190,-1318,278
1.952611,1258,-1200,380
1.957611,1380,-1095,308
1.962465,1451,-1034,258
1.967290,1469,-1075,273
1.972290,1524,-1049,301
1.977144,1521,-958,355
1.981999,1473,-972,412
1.986999,1426,-1031,471
1.991823,1358,-1006,519
1.996678,1310,-1024,532
2.1678,1344,-1034,487
2.6533,1419,-991,444
2.11357,1474,-1020,449
2.16357,1567,-1016,428
2.21212,1730,-979,405
2.26036,1798,-995,464
2.31036,1753,-1002,601
2.35891,1753,-1024,689
2.40745,1731,-1049,683
2.45745,1669,-1025,698
2.50570,1708,-1022,694
2.55424,1715,-1047,667
2.60424,1642,-1045,714
2.65279,1642,-1047,771
2.70103,1606,-1009,817
2.75103,1578,-893,803
2.79958,1730,-786,715
2.84813,1874,-670,714
2.89813,1881,-581,765
2.94637,1856,-575,815
2.99492,1851,-533,876
2.104492,1780,-436,921
2.109347,1678,-368,946
2.114171,1646,-315,885
2.119171,1646,-324,842
2.124026,1626,-356,867
2.128880,1610,-306,837
2.133880,1601,-265,785
2.138704,1571,-247,732
2.143559,1539,-172,653
2.148559,1517,-77,557
2.153414,1496,1,439
2.158238,1440,57,324
2.163238,1415,139,217
2.168093,1485,273,87
2.172948,1601,444,60
2.177948,1746,592,217
2.182772,1899,657,435
2.187627,1944,708,724
2.192627,1935,742,974
2.197481,2131,803,967
2.202306,2305,912,912
2.207306,2183,898,967
2.212160,2028,796,1057
2.217015,1906,707,1205
2.222015,1756,664,1299
2.226839,1610,728,1262
2.231694,1399,751,1280
2.236694,1223,717,1355
2.241549,1101,778,1353
2.246373,967,858,1426
2.251373,898,921,1483
2.256228,887,1057,1306
2.261082,924,1221,994
2.266082,985,1371,612
2.270907,1033,1539,239
2.275761,1140,1717,-17
2.280761,1326,1899,-122
2.285616,1453,2039,-36
2.290440,1483,2117,198
2.295440,1467,2171,464
2.300295,1396,2187,749
2.305150,1276,2139,1069
2.310150,1196,1974,1319
2.314974,1178,1776,1399
2.319829,1146,1605,1405
2.324829,1137,1378,1480
2.329683,1240,1149,1481
2.334508,1387,1010,1319
2.339508,1405,926,1114
2.344362,1346,885,908
2.349217,1333,940,707
2.354217,1294,1030,583
2.359041,1233,1140,548
2.363896,1178,1271,491
2.368896,1112,1389,444
2.373751,1105,1606,453
2.378575,1026,1726,503
2.383575,978,1683,560
2.388430,1090,1808,542
2.393285,1082,1921,512
2.398285,1008,1892,499
2.403109,978,1903,480
2.407963,908,1946,437
2.412963,876,1840,403
2.417818,878,1833,348
2.422673,849,1931,216
2.427673,815,1105,278
2.432497,890,665,308
2.437352,974,1610,-63
2.442352,917,1830,-208
2.447207,837,1437,16
2.452031,717,1598,98
2.457031,562,1746,60
2.461886,517,1735,-20
2.466740,582,1862,-150
2.471740,624,1947,-218
2.476565,592,1885,-202
2.481419,539,1790,-161
2.486419,492,1806,-231
2.490905,487,1890,-367
2.496157,519,1856,-399
2.501012,532,1735,-334
2.506012,460,1721,-367
2.510836,314,1828,-474
2.515691,241,1905,-447
2.520691,324,2012,-393
2.525545,426,2126,-358
2.530370,342,2144,-413
2.535370,216,2172,-641
2.540224,269,2246,-806
2.545079,367,2185,-820
2.550079,392,1990,-688
2.554934,339,2240,-641
2.559758,430,1708,-293
2.564758,640,308,457
2.569613,612,807,258
2.574467,549,1798,-365
2.579467,473,1673,-359
2.584000,255,1821,-340
2.588852,162,2056,-488
2.594073,191,2083,-613
2.598928,219,2121,-683
2.603928,214,2090,-661
2.608783,207,2012,-649
2.613637,207,1903,-629
2.618637,171,1817,-643
2.623462,119,1746,-752
2.628316,132,1637,-684
2.633316,180,1646,-436
2.638171,182,1710,-377
2.642995,224,1648,-568
2.647995,237,1573,-654
2.652850,110,1531,-552
2.657705,69,1555,-520
2.662705,83,1576,-583
2.667529,8,1630,-622
2.672384,-20,1664,-572
2.677384,44,1631,-668
2.682238,-31,2369,-631
2.687063,-290,3174,-181
2.692063,-279,2724,-308
2.696917,-13,2069,-768
2.701772,121,1862,-684
2.706772,157,1649,-506
2.711596,124,1514,-454
2.716451,32,1498,-445
2.721451,-20,1510,-495
2.726306,-77,1551,-533
2.731130,-204,1555,-549
2.736130,-290,1539,-624
2.740985,-295,1569,-704
2.745839,-302,1656,-670
2.750839,-334,1715,-663
2.755694,-359,1671,-704
2.760518,-352,1628,-654
2.765518,-320,1642,-625
2.770373,-318,1655,-640
2.775228,-334,1667,-622
2.780228,-318,1696,-643
2.785052,-313,1705,-702
2.789907,-340,1710,-756
2.794907,-374,1724,-772
2.799762,-431,1698,-733
2.804586,-499,1631,-738
2.809586,-497,1553,-781
2.814441,-456,1505,-765
2.819295,-486,1483,-733
2.824295,-517,1414,-693
2.829120,-538,1317,-647
2.833974,-666,1251,-652
2.838974,-766,1255,-679
2.843829,-765,1310,-740
2.848684,-781,1323,-775
2.853684,-811,1385,-784
2.858508,-827,1435,-858
2.863363,-813,1412,-883
2.868363,-827,1546,-902
2.873217,-888,1630,-986
2.878042,-874,1537,-1011
2.883042,-843,1464,-977
2.887896,-843,1437,-938
2.892751,-931,1424,-918
2.897751,-1106,1365,-1008
2.902575,-1183,1267,-1113
2.907430,-1193,1251,-1045
2.912430,-1181,1339,-961
2.917285,-1070,1287,-908
2.922109,-945,1151,-743
2.927109,-915,1144,-659
2.931964,-911,1058,-713
2.936818,-949,967,-708
2.941818,-1059,1005,-738
2.946673,-1156,1012,-856
2.951497,-1193,1012,-972
2.956497,-1284,1037,-1149
2.961352,-1438,1149,-1350
2.966176,-1477,1401,-1468
2.971176,-1402,1540,-1522
2.976031,-1334,1440,-1540
2.980886,-1359,1244,-1493
2.985886,-1449,1058,-1356
2.990710,-1500,937,-1236
2.995565,-1534,894,-1265
3.565,-1581,932,-1352
3.5420,-1591,1007,-1400
3.10244,-1574,1037,-1418
3.15244,-1497,1035,-1434
3.20099,-1382,1026,-1440
3.24953,-1293,1010,-1377
3.29953,-1229,973,-1270
3.34777,-1231,890,-1181
3.39632,-1297,803,-1116
3.44632,-1338,705,-1102
3.49487,-1384,562,-1199
3.54311,-1565,442,-1347
3.59311,-1824,392,-1499
3.64166,-2047,410,-1645
3.69021,-2188,473,-1704
3.74021,-2166,546,-1702
3.78875,-2045,558,-1704
3.83700,-1922,439,-1691
3.88700,-1827,337,-1595
3.93554,-1832,312,-1418
3.98409,-1868,244,-1359
3.103409,-1866,142,-1415
3.108233,-1911,60,-1409
3.113088,-1973,30,-1374
3.118088,-1966,17,-1359
3.122943,-1902,-47,-1313
3.127767,-1820,-154,-1229
3.132767,-1750,-247,-1200
3.137622,-1757,-379,-1229
3.142476,-1875,-550,-1284
3.147476,-1995,-581,-1352
3.152301,-1997,-493,-1377
3.157155,-1920,-445,-1402
3.162155,-1857,-427,-1422
3.167010,-1790,-429,-1379
3.171834,-1693,-504,-1340
3.176834,-1675,-627,-1291
3.181689,-1722,-670,-1213
3.186544,-1761,-670,-1183
3.191544,-1815,-722,-1165
3.196368,-1799,-765,-1125
3.201223,-1716,-829,-1068
3.206223,-1615,-927,-1038
3.211078,-1529,-974,-1013
3.215902,-1532,-1024,-945
3.220902,-1540,-1111,-949
3.225756,-1568,-1181,-1016
3.230611,-1693,-1166,-1079
3.235611,-1827,-1131,-1150
3.240435,-1913,-1145,-1200
3.245290,-1898,-1133,-1222
3.250290,-1816,-1077,-1252
3.255145,-1690,-1015,-1229
3.260000,-1518,-977,-1154
3.265000,-1406,-974,-1041
3.269824,-1322,-979,-883
3.274679,-1229,-1045,-813
3.279679,-1184,-1168,-808
3.284165,-1177,-1245,-745
3.289416,-1175,-1263,-729
3.294271,-1150,-1243,-756
3.299271,-1125,-1234,-743
3.304126,-1168,-1274,-774
3.308950,-1279,-1282,-781
3.313950,-1363,-1261,-750
3.318805,-1322,-1324,-756
3.323659,-1208,-1479,-691
3.328659,-1133,-1579,-622
3.333484,-1131,-1627,-597
3.338338,-1154,-1665,-527
3.343338,-1149,-1638,-468
3.348193,-1138,-1599,-458
3.353017,-1059,-1595,-445
3.358017,-927,-1618,-402
3.362872,-872,-1663,-386
3.367727,-888,-1690,-424
3.372727,-947,-1645,-427
3.377551,-988,-1606,-415
3.382406,-984,-1654,-397
3.387406,-983,-1782,-370
3.392260,-1006,-1872,-374
3.397085,-1018,-1841,-283
3.402085,-915,-1804,-234
3.406939,-797,-1845,-302
3.411794,-793,-1918,-270
3.416794,-795,-1972,-224
3.421649,-779,-1940,-220
3.426473,-741,-1848,-195
3.431473,-620,-1779,-147
3.436328,-500,-1725,-40
3.441182,-397,-1722,39
3.446182,-295,-1765,19
3.451007,-313,-1882,26
3.455861,-440,-2084,55
3.460861,-558,-2261,53
3.465716,-620,-2345,57
3.470540,-641,-2384,8
3.475540,-599,-2332,-52
3.480395,-518,-2206,-59
3.485250,-477,-2172,-22
3.490250,-411,-2138,42
3.495074,-329,-2040,85
3.499929,-277,-2022,149
3.504929,-177,-2088,203
3.509784,-68,-2118,212
3.514608,-27,-2120,226
3.519608,-54,-2147,269
3.524463,-61,-2138,294
3.529317,-13,-2107,253
3.534317,-9,-2136,230
3.539141,-33,-2222,267
3.543996,-72,-2307,294
3.548996,-129,-2347,251
3.553851,-138,-2302,207
3.558675,-167,-2206,208
3.563675,-168,-2075,128
3.568530,-240,-1904,126
3.573385,-231,-1973,164
3.578385,205,-1845,-186
3.583375,210,-1245,-297
3.587739,-275,-1474,119
3.592990,-293,-2245,266
3.597845,-117,-2381,228
3.602845,23,-2211,239
3.607669,151,-1973,194
3.612524,121,-1807,223
3.617524,128,-1847,217
3.622379,198,-1940,169
3.627234,242,-1990,253
3.632234,262,-1986,335
3.637058,278,-2036,321
3.641912,298,-2136,353
3.646912,287,-2163,398
3.651767,319,-2097,344
3.656591,367,-2081,341
3.661591,412,-2027,380
3.666446,435,-1804,208
3.671301,432,-1809,230
3.676301,437,-2047,603
3.681125,339,-2186,460
3.685980,371,-2295,67
3.690980,464,-2272,330
3.695835,273,-2152,557
3.700659,214,-2204,316
3.705659,424,-2313,260
3.710514,551,-2261,435
3.715368,678,-2120,489
3.720368,830,-2045,462
3.725223,728,-2061,423
3.730047,551,-2132,301
3.735047,542,-2166,324
3.739902,421,-2070,235
3.744726,194,-2007,-38
3.749726,264,-2079,137
3.754581,410,-2059,567
3.759436,358,-1938,665
3.764436,442,-1831,412
3.769260,687,-1649,85
3.774115,771,-1395,-59
3.779115,787,-1154,10
3.783969,885,-1000,189
3.788794,935,-1013,380
3.793794,969,-1102,567
3.798648,1049,-1220,724
3.803503,1114,-1336,765
3.808503,1151,-1416,765
3.813327,1182,-1463,765
3.818182,1233,-1475,737
3.823182,1256,-1518,714
3.828037,1242,-1554,705
3.832861,1274,-1536,714
3.837861,1340,-1538,714
3.842716,1383,-1545,724
3.847570,1362,-1474,726
3.852570,1312,-1390,721
3.857395,1301,-1345,771
3.862249,1235,-1270,787
3.867249,1135,-1127,744
3.872104,1164,-961,692
3.876928,1253,-868,569
3.881928,1289,-772,491
3.886783,1356,-650,505
3.891638,1439,-606,492
3.896638,1453,-588,544
3.901462,1481,-597,614
3.906317,1494,-615,637
3.911317,1458,-602,685
3.916172,1464,-638,685
3.920996,1464,-715,657
3.925996,1480,-777,657
3.930850,1555,-808,655
3.935705,1596,-845,639
3.940705,1630,-872,619
3.945529,1708,-865,619
3.950384,1781,-852,680
3.955384,1837,-822,773
3.960239,1901,-808,826
3.965063,1930,-793,871
3.970063,1931,-784,894
3.974918,1940,-831,878
3.979773,1867,-877,926
3.984773,1765,-883,1019
3.989597,1696,-836,1076
3.994452,1598,-775,1071
3.999452,1551,-674,998
4.4306,1553,-529,926
4.9130,1476,-431,858
4.14130,1374,-317,783
4.18985,1317,-138,701
4.23840,1273,21,549
4.28840,1271,151,435
4.33664,1349,371,410
4.38519,1498,607,396
4.43519,1726,728,464
4.48374,1940,824,624
4.53198,2090,873,794
4.58198,2108,876,933
4.63053,2021,867,1090
4.67907,1962,805,1292
4.72907,1849,692,1481
4.77732,1737,501,1615
4.82586,1728,317,1687
4.87586,1687,219,1730
4.92441,1581,166,1769
4.97265,1515,135,1867
4.102265,1515,124,1864
4.106782,1512,185,1590
4.112003,1490,324,1189
4.116858,1444,466,808
4.121858,1337,603,524
4.126712,1187,792,369
4.131536,1039,967,310
4.136536,942,1083,349
4.141391,974,1258,423
4.146246,1089,1480,473
4.151246,1230,1642,542
4.156070,1387,1842,651
4.160925,1499,2040,812
4.165925,1537,2058,930
4.170780,1492,2035,998
4.175604,1390,1990,1137
4.180604,1280,1812,1296
4.185459,1167,1628,1358
4.190313,1124,1449,1256
4.195313,1207,1285,1003
4.200168,1260,1192,739
4.204992,1226,1137,587
4.209992,1155,1146,532
4.214847,1030,1185,489
4.219702,892,1269,457
4.224702,737,1389,389
4.229526,585,1476,226
4.234381,507,1587,41
4.239381,508,1739,-120
4.244235,589,1889,-197
4.249060,683,1989,-154
4.254060,773,2085,-61
4.258914,882,2230,85
4.263769,932,2289,271
4.268769,899,2267,466
4.273593,840,2230,617
4.278448,796,2135,630
4.283448,778,2015,573
4.288303,765,1908,491
4.293127,746,1844,366
4.298127,694,1751,282
4.302982,637,1669,230
4.307837,573,1662,155
4.312837,514,1623,99
4.317661,507,1592,82
4.322516,560,1667,37
4.327516,649,1631,94
4.332370,764,1435,96
4.337194,874,1376,-213
4.342194,937,1392,-363
4.347049,912,1374,-254
4.351904,783,1406,-174
4.356904,683,1449,-50
4.361759,623,1573,141
4.366583,542,1717,223
4.371583,498,1792,280
4.376438,324,2497,832
4.381292,53,3415,1449
4.386292,24,3217,1223
4.391117,269,2583,626
4.395971,476,2322,271
4.400971,491,2135,-20
4.405826,414,1997,-299
4.410650,317,1989,-479
4.415650,242,2008,-609
4.420505,226,2010,-718
4.425360,192,1989,-761
4.430360,141,1965,-734
4.435214,119,1962,-684
4.440039,83,1939,-595
4.445039,28,1946,-470
4.449893,16,1981,-327
4.454748,119,1839,-156
4.459748,167,1994,-215
4.464572,214,1872,-59
4.469427,466,805,494
4.474427,430,908,267
4.479282,119,1781,-165
4.484106,48,1735,-117
4.489106,51,1849,-127
4.493961,0,2264,10
4.498816,-56,2414,141
4.503816,-59,2392,92
4.508640,23,2224,-20
4.513495,39,2183,-247
4.518495,41,1951,-418
4.523349,91,1423,-533
4.528173,-22,1560,-511
4.533173,-188,1915,-442
4.538028,-263,1910,-484
4.542883,-367,1996,-397
4.547883,-340,1978,-522
4.552707,-252,1880,-736
4.557562,-342,1867,-636
4.562562,-450,1774,-649
4.567417,-493,1687,-750
4.572241,-513,1664,-695
4.577241,-517,1637,-656
4.582155,-443,1573,-631
4.586611,-356,1598,-611
4.591862,-456,1696,-715
4.596862,-493,1653,-766
4.601717,-347,1667,-738
4.606541,-309,1714,-749
4.611541,-258,1665,-713
4.616396,-138,1674,-643
4.621251,-315,1671,-716
4.626251,-293,1678,-854
4.631106,87,1649,-852
4.635930,-149,1612,-900
4.640930,-772,1574,-954
4.645785,-1166,1439,-947
4.650639,-1236,1403,-972
4.655639,-1047,1406,-1024
4.660463,-927,1399,-1177
4.665318,-841,1456,-1181
4.670318,-740,1481,-1038
4.675173,-674,1490,-981
4.679997,-659,1440,-900
4.684997,-650,1280,-831
4.689852,-518,1192,-815
4.694707,-508,1185,-790
4.699707,-690,1146,-786
4.704531,-766,1158,-847
4.709386,-768,1189,-945
4.714386,-872,1223,-1065
4.719240,-958,1324,-1204
4.724065,-933,1380,-1307
4.729065,-1177,1367,-1261
4.733919,-1557,1369,-1108
4.738774,-1634,1174,-1133
4.743774,-1474,882,-1359
4.748598,-1195,942,-1415
4.753453,-1136,1076,-1250
4.758453,-1116,964,-1209
4.763308,-916,890,-1286
4.768162,-895,864,-1290
4.773162,-956,792,-1232
4.777987,-972,801,-1197
4.782841,-1095,849,-1225
4.787841,-1334,908,-1254
4.792696,-1511,1010,-1300
4.797520,-1545,1028,-1400
4.802520,-1490,1003,-1484
4.807375,-1431,1019,-1541
4.812230,-1479,919,-1515
4.817230,-1504,749,-1456
4.822054,-1465,694,-1445
4.826909,-1479,726,-1382
4.831909,-1482,699,-1334
4.836764,-1463,594,-1338
4.841618,-1493,507,-1327
4.846618,-1511,507,-1332
4.851443,-1502,517,-1320
4.856297,-1515,414,-1265
4.861297,-1538,294,-1204
4.866152,-1550,173,-1150
4.870976,-1549,0,-1108
4.875976,-1538,-74,-1084
4.880831,-1549,-61,-1109
4.885686,-1609,-70,-1170
4.890686,-1650,-72,-1213
4.895510,-1670,-77,-1263
4.900365,-1786,-88,-1356
4.905365,-1947,-52,-1441
4.910219,-2029,51,-1511
4.915074,-2065,148,-1600
4.920074,-2070,94,-1645
4.924560,-2020,-43,-1613
4.929812,-1959,-115,-1566
4.934666,-1973,-209,-1468
4.939666,-2009,-334,-1354
4.944491,-1947,-384,-1290
4.949345,-1882,-424,-1197
4.954345,-1843,-486,-1109
4.959200,-1738,-506,-1049
4.964024,-1607,-550,-1045
4.969024,-1500,-592,-1109
4.973879,-1518,-592,-1058
4.978734,-1693,-649,-1009
4.983734,-1857,-690,-1109
4.988558,-1963,-684,-1186
4.993413,-2063,-697,-1208
4.998413,-2131,-704,-1225
5.3267,-2111,-690,-1232
5.8122,-2027,-690,-1234
5.13122,-1925,-686,-1247
5.17946,-1852,-674,-1241
5.22801,-1898,-699,-1209
5.27801,-1929,-722,-1199
5.32656,-1807,-725,-1175
5.37480,-1688,-791,-1072
5.42480,-1643,-902,-961
5.47335,-1591,-995,-861
5.52190,-1477,-1052,-731
5.57190,-1286,-1083,-622
5.62014,-1077,-1093,-558
5.66869,-940,-1081,-538
5.71869,-831,-1072,-508
5.76723,-816,-1109,-454
5.81547,-931,-1224,-429
5.86547,-1090,-1400,-392
5.91402,-1332,-1582,-374
5.96257,-1631,-1699,-386
5.101257,-1831,-1740,-363
5.106081,-1807,-1750,-377
5.110936,-1588,-1732,-420
5.115936,-1368,-1677,-409
5.120791,-1236,-1677,-386
5.125615,-1168,-1729,-342
5.130615,-1158,-1761,-252
5.135470,-1140,-1806,-165
5.140324,-1097,-1893,-127
5.145324,-1090,-1954,-50
5.150149,-1025,-1943,73
5.155003,-909,-1873,103
5.160003,-836,-1791,91
5.164858,-741,-1709,112
5.169682,-679,-1613,137
5.174682,-684,-1615,158
5.179537,-675,-1670,210
5.184392,-677,-1697,298
5.189392,-608,-1722,378
5.194216,-504,-1734,358
5.199071,-618,-1834,207
5.204071,-879,-1982,73
5.208925,-1072,-2050,-36
5.213780,-1120,-2040,-99
5.218780,-1006,-1972,-2
5.223604,-856,-1975,48
5.228459,-741,-2050,60
5.233459,-618,-2090,80
5.238314,-531,-2204,0
5.243138,-500,-2282,130
5.248138,-520,-2297,219
5.252993,-550,-2552,-183
5.257848,-567,-2668,-270
5.262848,-620,-2443,198
5.267672,-531,-2348,494
5.272526,-215,-2266,591
5.277526,49,-2127,605
5.282381,114,-2100,503
5.287236,89,-2070,407
5.292236,41,-2059,316
5.297060,-74,-2095,194
5.301915,-200,-2098,132
5.306915,-252,-2091,167
5.311770,-268,-2095,201
5.316594,-272,-2091,153
5.321594,-240,-2057,105
5.326449,-199,-2041,98
5.331303,-165,-2102,121
5.336303,-149,-2188,196
5.341158,-138,-2288,223
5.345982,-104,-2372,223
5.350982,-45,-2411,257
5.355837,37,-2391,249
5.360692,121,-2270,216
5.365692,121,-2173,248
5.370516,99,-2050,248
5.375371,185,-1713,92
5.380371,249,-1520,48
5.385225,207,-1672,183
5.390050,162,-1824,264
5.395050,130,-1790,321
5.399904,135,-1779,364
5.404759,178,-1888,374
5.409759,267,-1938,376
5.414583,378,-1932,416
5.419438,408,-1981,517
5.424438,433,-2041,553
5.429293,507,-2056,569
5.434148,566,-2009,598
5.439148,560,-1936,585
5.443972,516,-1870,546
5.448827,498,-1827,487
5.453827,433,-1857,507
5.458681,310,-1868,487
5.463505,285,-1829,387
5.468505,273,-1895,383
5.473360,214,-1952,285
5.478215,287,-2061,292
5.483215,303,-2304,607
5.488039,303,-2454,516
5.492894,648,-2586,182
5.497894,889,-2595,357
5.502749,817,-2482,601
5.507573,824,-2397,532
5.512573,828,-2156,489
5.517428,905,-1938,364
5.522282,880,-1774,417
5.527282,332,-1407,1153
5.532107,223,-1350,1315
5.536961,751,-1561,707
5.541961,846,-1297,464
5.546816,635,-883,417
5.551671,542,-802,469
5.556671,467,-916,630
5.561495,471,-1104,690
5.566350,585,-1295,730
5.571350,712,-1418,749
5.576204,896,-1475,573
5.580905,974,-1565,439
5.585575,1196,-1618,492
5.590796,1605,-1554,298
5.595796,1515,-1645,76
5.600650,1171,-1743,191
5.605505,1042,-1625,401
5.610505,1017,-1584,635
5.615329,1026,-1593,889
5.620184,1076,-1545,1078
5.625184,1110,-1456,1178
5.630039,1085,-1320,1312
5.634893,1067,-1213,1519
5.639893,1065,-1120,1585
5.644718,1142,-991,1453
5.649572,1262,-888,1226
5.654572,1323,-838,974
5.659427,1340,-822,814
5.664251,1305,-836,701
5.669251,1253,-836,615
5.674106,1224,-831,607
5.678961,1217,-833,644
5.683961,1255,-841,683
5.688785,1298,-824,708
5.693640,1348,-716,824
5.698640,1381,-611,973
5.703495,1369,-568,1021
5.708349,1378,-522,1078
5.713349,1371,-531,1176
5.718173,1403,-615,1192
5.723028,1487,-674,1130
5.728028,1548,-729,1040
5.732514,1635,-825,1008
5.737766,1699,-933,1064
5.742620,1701,-1050,1096
5.747620,1681,-1154,1071
5.752445,1698,-1172,1082
5.757299,1710,-1122,1069
5.762299,1671,-1077,987
5.767154,1656,-993,953
5.771978,1637,-852,939
5.776978,1592,-690,873
5.781833,1562,-520,796
5.786688,1537,-356,783
5.791688,1503,-175,846
5.796512,1489,32,864
5.801367,1526,171,860
5.806367,1519,174,985
5.811222,1546,262,989
5.816076,1669,432,860
5.821076,1671,467,901
5.825901,1544,480,917
5.830755,1494,555,869
5.835755,1544,607,882
5.840610,1587,608,894
5.845434,1617,598,876
5.850434,1669,571,878
5.855289,1694,569,958
5.860144,1623,589,1033
5.865144,1537,617,1074
5.869968,1589,710,1058
5.874823,1589,771,1001
5.879823,1419,773,960
5.884677,1355,812,892
5.889502,1401,894,807
5.894502,1349,1019,739
5.899356,1196,1180,639
5.904211,1058,1360,507
5.909211,989,1524,366
5.914035,901,1660,208
5.918890,778,1826,78
5.923890,742,1985,-45
5.928745,819,2124,-183
5.933599,874,2287,-158
5.938599,908,2374,12
5.943424,1058,2412,142
5.948278,1223,2467,314
5.953278,1253,2480,574
5.958133,1174,2431,805
5.962957,1039,2258,983
5.967957,1007,2103,1132
5.972812,1058,2039,1187
5.977667,1049,1880,1071
5.982667,1067,1714,810
5.987522,1112,1606,532
5.992346,1090,1473,299
5.997346,1033,1394,130
6.2201,912,1380,66
6.7055,837,1428,17
6.12055,840,1587,-74
6.16880,669,1624,-79
6.21734,557,1603,-50
6.26734,671,1755,-175
6.31589,678,1921,-363
6.36413,614,2042,-429
6.41413,603,2155,-397
6.46268,603,2255,-363
6.51123,632,2342,-317
6.56123,680,2376,-211
6.60977,694,2344,-70
6.65802,630,2310,-20
6.70802,639,2131,-20
6.75656,683,2021,-47
6.80511,542,2074,-170
6.85511,644,1306,-145
6.90335,914,598,-75
6.95190,708,1167,-283
6.100190,426,1814,-492
6.105045,453,1365,-467
6.109869,496,512,-492
6.114869,421,1035,-820
6.119724,380,1749,-815
6.124578,278,1496,-393
6.129578,74,1621,-427
6.134403,76,2056,-668
6.139257,183,2206,-550
6.144257,91,2099,-433
6.149112,-83,1996,-670
6.153967,-92,2017,-888
6.158967,137,1958,-922
6.163791,367,1828,-975
6.168646,237,1621,-1015
6.173646,-142,1467,-1066
6.178501,-247,1558,-1047
6.183325,-442,1339,-911
6.188325,-1008,996,-1066
6.193180,-849,1149,-1266
6.198004,-100,1264,-1175
6.203004,349,1262,-1236
6.207859,692,1414,-1361
6.212713,774,1598,-1334
6.217713,310,1830,-1122
6.222568,-93,1839,-777
6.227392,-177,1880,-768
6.232392,-324,2565,-686
6.237247,-308,2788,-100
6.242102,87,2105,-88
6.247102,323,1719,-688
6.251926,153,1803,-1054
6.256781,-58,1930,-1250
6.261781,-154,1887,-1390
6.266635,-206,1781,-1399
6.271490,-183,1821,-1315
6.276490,-108,1755,-1315
6.281314,-92,1546,-1320
6.286169,-120,1485,-1206
6.291169,-133,1442,-1150
6.296024,-140,1317,-1165
6.300848,-150,1308,-1091
6.305848,-161,1326,-1070
6.310703,-161,1319,-1154
6.315557,-199,1369,-1172
6.320557,-242,1417,-1220
6.325382,-217,1437,-1281
6.330236,-317,1464,-1247
6.335236,-215,1619,-1357
6.340091,271,1671,-1372
6.344915,253,1574,-1175
6.349915,-109,1674,-1083
6.354770,-272,1606,-1038
6.359625,-404,1501,-1149
6.364625,-338,1571,-1181
6.369480,-204,1415,-1116
6.374304,-149,1326,-1188
6.379304,-36,1274,-1154
6.384159,24,1274,-1077
6.389013,-72,1596,-954
6.394013,-247,1728,-813
6.398838,-365,1603,-859
6.403692,-336,1526,-988
6.408692,-286,1406,-1033
6.413547,-374,1271,-1013
6.418402,-456,1289,-1011
6.423402,-504,1376,-972
6.428226,-584,1417,-961
6.433081,-575,1489,-1033
6.438081,-616,1474,-1084
6.442905,-784,1349,-1084
6.447760,-904,1287,-1016
6.452760,-886,1271,-995
6.457614,-822,1319,-1024
6.462469,-733,1433,-991
6.467469,-586,1439,-954
6.472293,-459,1333,-934
6.477148,-370,1330,-920
6.482148,-392,1414,-891
6.487003,-533,1467,-870
6.491827,-649,1506,-918
6.496827,-727,1489,-959
6.501682,-779,1424,-986
6.506536,-788,1371,-1022
6.511536,-800,1303,-1015
6.516361,-834,1267,-970
6.521215,-908,1278,-933
6.526215,-963,1253,-959
6.531070,-940,1212,-1041
6.535925,-940,1185,-1120
6.540925,-970,1182,-1197
6.545749,-999,1235,-1249
6.550266,-1075,1260,-1272
6.555487,-1122,1212,-1309
6.560487,-1106,1203,-1372
6.565341,-1166,1248,-1450
6.570196,-1268,1269,-1477
6.575196,-1281,1260,-1472
6.580020,-1213,1230,-1441
6.584537,-1127,1149,-1359
6.589788,-1025,1030,-1386
6.594788,-918,901,-1493
6.599613,-931,799,-1513
6.604467,-1016,810,-1502
6.609467,-1075,898,-1536
6.614322,-1188,898,-1636
6.619146,-1306,832,-1686
6.624146,-1325,780,-1649
6.629001,-1274,814,-1584
6.633856,-1218,928,-1524
6.638856,-1238,899,-1502
6.643711,-1238,765,-1532
6.648535,-1097,660,-1656
6.653535,-983,476,-1813
6.658390,-1036,212,-2023
6.663244,-1222,185,-2138
6.668244,-1465,373,-2086
6.673068,-1636,482,-2131
6.677923,-1611,599,-2175
6.682923,-1427,683,-2145
6.687778,-1200,626,-2116
6.692633,-866,644,-2129
6.697633,-570,615,-2207
6.702457,-606,476,-2082
6.707312,-797,476,-1881
6.712312,-900,489,-1898
6.717166,-1049,428,-1904
6.721991,-1270,385,-1981
6.726991,-1293,280,-2193
6.731845,-1059,89,-2186
6.736700,-745,-50,-2059
6.741700,-533,-106,-1975
6.746555,-543,-120,-1843
6.751379,-713,-77,-1770
6.756379,-800,8,-1799
6.761234,-770,69,-1865
6.766088,-766,78,-1932
6.771088,-799,74,-1966
6.775943,-799,99,-1991
6.780767,-720,171,-1959
6.785767,-677,207,-1861
6.790622,-665,201,-1793
6.795477,-563,226,-1741
6.800477,-492,212,-1675
6.805301,-458,189,-1616
6.810156,-395,178,-1618
6.815156,-397,85,-1736
6.820011,-499,37,-1866
6.824865,-641,62,-1904
6.829865,-713,85,-1920
6.834690,-718,162,-1872
6.839544,-674,169,-1824
6.844544,-574,124,-1913
6.849399,-577,173,-1968
6.854223,-652,208,-1981
6.859223,-659,182,-2011
6.864078,-647,224,-1956
6.868933,-593,301,-1945
6.873933,-554,301,-1934
6.878757,-567,269,-1832
6.883612,-509,264,-1845
6.888612,-461,269,-1872
6.893466,-490,278,-1765
6.898291,-511,276,-1674
6.903291,-513,267,-1629
6.908145,-484,244,-1584
6.913000,-470,192,-1534
6.918000,-468,149,-1524
6.922824,-418,139,-1507
6.927679,-424,96,-1463
6.932679,-445,23,-1481
6.937534,-431,-6,-1481
6.942358,-481,-74,-1515
6.947358,-567,-147,-1590
6.952213,-658,-131,-1654
6.957068,-790,-109,-1729
6.962068,-841,-74,-1852
6.966892,-840,-31,-1902
6.971746,-897,-33,-1761
6.976746,-913,-124,-2143
6.981601,-1193,-152,-1870
6.986425,-1595,-77,-845
6.991425,-1391,-272,-1620
6.996280,-893,-290,-2659
7.1135,-679,33,-2593
7.6135,-958,-209,-2213
7.10959,-1154,-452,-2211
7.15814,-568,82,-3211
7.20814,-409,198,-2831
7.25669,-1102,-427,-1359
7.30493,-1402,-699,-1275
7.35493,-1257,-447,-1604
7.40348,-1054,-90,-2006
7.45202,-1036,26,-2182
7.50202,-1322,-168,-1647
7.55026,-1488,-458,-1488
7.59881,-1461,-615,-1525
7.64881,-1397,-604,-1649
7.69736,-1525,-656,-1284
7.74560,-1779,-581,-263
7.79560,-1790,-540,-675
7.84415,-1650,-754,-1822
7.89270,-1416,-568,-2065
7.94270,-1193,-254,-1900
7.99094,-1056,-272,-1720
7.103949,-1029,-192,-1336
7.108949,-1270,-43,-949
7.113803,-1497,-75,-983
7.118628,-1463,-206,-1220
7.123628,-1424,-215,-1402
7.128482,-1563,-127,-1313
7.133337,-1611,-127,-1143
7.138337,-1549,-143,-1188
7.143161,-1666,-229,-1102
7.148016,-1827,-370,-977
7.153016,-1870,-438,-1031
7.157840,-1940,-511,-965
7.162695,-2034,-634,-756
7.167695,-2065,-665,-750
7.172550,-2061,-663,-775
7.177374,-2038,-702,-631
7.182374,-2016,-683,-577
7.187229,-1997,-665,-568
7.192083,-1918,-593,-525
7.197083,-1875,-479,-470
7.201938,-1925,-399,-358
7.206762,-1952,-343,-356
7.211762,-1941,-395,-563
7.216617,-2006,-425,-609
7.221472,-2134,-354,-367
7.226472,-2150,-288,-234
7.231296,-2107,-361,-300
7.236151,-2136,-420,-320
7.241151,-2116,-331,-206
7.245975,-1929,-347,-111
7.250830,-1690,-158,121
7.255830,-1570,12,323
7.260684,-1679,-236,173
7.265509,-1904,-38,357
7.270509,-1911,235,748
7.275363,-1877,-199,644
7.280218,-1929,-531,324
7.285218,-2040,-508,17
7.290042,-2393,-463,-242
7.294897,-2597,-158,-218
7.299897,-2541,33,-56
7.304752,-2525,-122,-134
7.309576,-2509,-13,-209
7.314576,-2452,92,-131
7.319431,-2352,26,-45
7.324286,-2118,-20,62
7.329286,-1907,30,241
7.334110,-1959,605,873
7.338626,-1815,414,1115
7.343509,-1524,-868,253
7.348761,-1663,-708,10
7.353761,-1877,108,674
7.358585,-1909,-140,840
7.363440,-1877,-250,699
7.368440,-1772,-422,871
7.373294,-1793,-545,1115
7.378119,-1824,-177,1032
7.383119,-1738,-236,839
7.387973,-1774,-245,865
7.392828,-1854,-58,917
7.397828,-1866,-170,824
7.402652,-1881,-238,849
7.407507,-1904,-265,921
7.412507,-2002,-397,805
7.417331,-2127,-392,808
7.422186,-2125,-238,921
7.427186,-2015,-167,883
7.432041,-1966,-183,842
7.436865,-1979,-120,849
7.441865,-2023,-22,796
7.446720,-2193,-97,794
7.451574,-2211,-165,926
7.456574,-2079,-177,1087
7.461399,-2070,-325,1149
7.466253,-1982,-388,1090
7.471253,-1882,-225,1090
7.476108,-1886,-118,1114
7.480932,-1832,-190,1112
7.485932,-1720,-200,1201
7.490787,-1577,-127,1299
7.495642,-1516,-138,1287
7.500642,-1581,-104,1221
7.505466,-1636,-20,1139
7.510321,-1609,49,1024
7.515321,-1643,189,976
7.520175,-1711,280,1012
7.525000,-1518,376,1055
7.530000,-1334,639,1130
7.534854,-1304,705,1226
7.539679,-1115,544,1230
7.544679,-1231,460,1135
7.549533,-1616,435,964
7.554388,-1713,510,807
7.559388,-1820,473,907
7.564212,-1945,237,1107
7.569067,-1811,76,1306
7.574067,-1716,169,1455
7.578922,-1845,307,1483
7.583408,-1645,212,1696
7.588659,-1440,241,1769
7.593659,-1791,305,1546
7.598484,-1986,160,1558
7.603338,-2068,98,1610
7.608338,-2332,8,1562
7.613193,-2325,-84,1569
7.618017,-2081,-40,1410
7.623017,-1765,-86,1298
7.627872,-1391,-186,1289
7.632696,-1240,-67,1276
7.637696,-1282,148,1326
7.642551,-1236,201,1301
7.647406,-1154,216,1387
7.652406,-1027,223,1526
7.657260,-858,146,1485
7.662085,-861,98,1508
7.667085,-956,53,1683
7.671939,-934,-34,1824
7.676764,-809,-50,1872
7.681764,-636,28,1812
7.686618,-459,126,1740
7.691473,-363,137,1831
7.696473,-286,135,1815
7.701297,-65,235,1615
7.706152,142,171,1715
7.711152,207,-92,1692
7.716007,312,112,1665
7.720861,280,357,2549
7.725861,241,-186,2853
7.730686,544,-520,2144
7.735540,651,-149,1905
7.740540,439,228,1851
7.745365,423,319,1783
7.750219,499,135,1826
7.755219,583,-90,1676
7.760074,730,-186,1526
7.764929,787,-188,1578
7.769929,824,-159,1628
7.774753,924,-118,1567
7.779608,1044,-25,1480
7.784608,1176,7,1376
7.789432,1319,-36,1489
7.794287,1444,12,1605
7.799287,1574,155,1398
7.804141,1692,142,1355
7.808966,1792,155,1333
7.813966,1976,187,1340
7.818820,2055,-206,1648
7.823675,1969,-97,1192
7.828675,1865,433,789
7.833499,1799,137,1265
7.838354,1860,-218,1167
7.843354,1833,-70,1015
7.848209,1794,53,1057
7.853033,1880,57,758
7.858033,1908,-6,948
7.862888,1989,-36,1183
7.867743,2097,10,982
7.872743,2071,46,992
7.877567,1972,89,1060
7.882422,1890,107,962
7.887422,1781,67,965
7.892276,1683,67,862
7.897100,1698,71,682
7.902100,1776,53,640
7.906955,1819,89,533
7.911810,1785,119,492
7.916810,1746,124,539
7.921634,1739,146,430
7.926489,1730,155,328
7.931489,1683,135,383
7.936344,1642,76,448
7.941168,1656,28,489
7.946168,1681,14,523
7.951023,1699,-22,546
7.955847,1789,-11,524
7.960847,1885,8,558
7.965702,1942,-52,714
7.970556,2151,-50,574
7.975556,2312,3,455
7.980380,2347,1,528
7.985235,2417,-6,448
7.990235,2308,-34,532
7.995090,2247,-227,405
7.999914,2317,-270,319
8.4914,2135,-99,399
8.9769,1969,-106,117
8.14624,2047,-125,264
8.19624,2081,-199,499
8.24448,2074,-352,267
8.29303,2081,-374,308
8.34303,2021,-358,478
8.39157,1962,-349,417
8.43982,1928,-304,428
8.48982,1883,-283,496
8.53836,1856,-292,455
8.58691,1869,-217,487
8.63691,1908,-213,567
8.68515,1967,-283,589
8.73370,1978,-172,578
8.78370,1921,114,374
8.83194,1949,335,339
8.88049,1978,305,16
8.93049,1839,351,-931
8.97904,1583,453,-925
8.102728,1387,408,-338
8.107728,1610,319,-322
8.112583,1924,124,-184
8.117437,1849,26,133
8.122437,1726,112,266
8.127262,1789,174,241
8.132116,1880,123,173
8.137116,1830,33,114
8.141971,1814,-81,-24
8.146795,1964,-254,8
8.151795,2114,-368,133
8.156650,2240,-377,-270
8.161474,2217,-259,-500
8.166474,2122,-106,-113
8.171329,2256,114,-279
8.176184,2265,364,-445
8.181184,1958,648,-18
8.185670,1619,1049,244
8.190921,1299,1271,339
8.195745,1219,1212,201
8.200745,1487,957,-88
8.205600,1698,571,-204
8.210455,1751,216,-436
8.215455,1849,-38,-725
8.220279,1862,-245,-768
8.225134,1794,-390,-915
8.230134,1878,-556,-1177
8.234989,1940,-863,-1186
8.239813,1919,-706,-1375
8.244813,2014,-438,-1824
8.249668,1942,-795,-1752
8.254522,1623,-750,-1345
8.259522,1360,-238,-1099
8.264347,1121,26,-968
8.269201,953,128,-1199
8.274201,958,151,-1597
8.279056,982,198,-1749
8.283880,1005,169,-1845
8.288880,1087,124,-1945
8.293735,1069,248,-1950
8.298590,923,374,-1966
8.303590,789,333,-1923
8.308414,760,239,-1754
8.313269,726,149,-1641
8.318269,614,74,-1574
8.323123,510,101,-1575
8.327948,394,92,-1552
8.332948,351,17,-1386
8.337802,371,14,-1461
8.342627,349,71,-1657
8.347627,339,42,-1768
8.352481,364,-113,-2027
8.357336,432,-161,-2200
8.362336,457,-61,-2166
8.367160,394,-34,-2050
8.372015,374,-65,-1836
8.377015,348,-43,-1631
8.381870,274,-2,-1593
8.386694,242,14,-1645
8.391694,178,-11,-1568
8.396549,149,-67,-1486
8.401403,182,-100,-1425
8.406403,133,-83,-1370
8.411228,144,-17,-1436
8.416082,89,51,-1331
8.421082,-220,-6,-1145
8.425937,-400,-197,-1281
8.430761,-299,-274,-1534
8.435761,-177,-202,-1649
8.440616,-140,-47,-1865
8.445471,-109,32,-2216
8.450471,16,-261,-2143
8.455295,160,-463,-1461
8.460150,69,-117,-950
8.465150,-208,228,-1056
8.469974,-431,274,-1211
8.474829,-504,294,-1449
8.479829,-508,278,-1868
8.484683,-490,182,-2270
8.489508,-424,-56,-2893
8.494508,-427,-256,-3230
8.499362,-443,-47,-2864
8.504217,-417,382,-2415
8.509217,-524,608,-2070
8.514041,-663,507,-1891
8.518896,-659,364,-1884
8.523896,-697,249,-1756
8.528751,-800,5,-1568
8.533575,-829,-70,-1349
8.538575,-899,94,-1345
8.543430,-1015,201,-1611
8.548254,-1033,87,-1743
8.553254,-1061,-183,-1752
8.558109,-1190,-225,-1440
8.562963,-1279,-152,-1054
8.567963,-1356,-183,-986
8.572788,-1515,-34,-720
8.577642,-1557,35,-650
8.582642,-1540,16,-833
8.587129,-1684,314,-547
8.592380,-1790,474,-668
8.597235,-1825,157,-1211
8.602235,-1993,103,-1058
8.607059,-2041,139,-1468
8.611914,-1972,-406,-2036
8.616914,-2248,-256,-784
8.621768,-2581,389,39
8.626593,-2564,248,-493
8.631593,-2545,116,-631
8.636447,-2629,183,-613
8.641302,-2657,94,-709
8.646302,-2698,94,-690
8.651126,-2789,121,-688
8.655981,-2847,92,-647
8.660981,-2916,62,-509
8.665836,-3020,49,-438
8.670660,-2998,37,-436
8.675660,-2938,55,-381
8.680515,-2952,101,-292
8.685370,-2939,99,-188
8.690370,-2861,137,-108
8.695224,-2820,207,-45
8.700048,-2850,264,17
8.705048,-2823,378,30
8.709903,-2795,444,30
8.714758,-2795,444,99
8.719758,-2777,530,182
8.724582,-2813,644,123
8.729437,-2748,676,94
8.734437,-2602,657,264
8.739292,-2504,585,441
8.744116,-2363,499,466
8.749116,-2218,414,473
8.753971,-2097,249,583
8.758825,-2009,74,667
8.763825,-1957,-40,737
8.768680,-1857,-115,864
8.773504,-1738,-165,974
8.778504,-1686,-208,1080
8.783359,-1715,-175,1139
8.788183,-1700,-63,1146
8.793183,-1625,-17,1223
8.798038,-1582,3,1267
8.802893,-1518,114,1203
8.807893,-1427,219,1142
8.812747,-1377,285,1069
8.817572,-1327,385,917
8.822572,-1274,478,828
8.827426,-1263,478,848
8.832281,-1354,396,849
8.837281,-1515,292,910
8.842105,-1634,144,1078
8.846960,-1634,5,1208
8.851960,-1674,-20,1317
8.856815,-1818,41,1508
8.861639,-1825,51,1662
8.866639,-1813,53,1474
8.871494,-1781,226,1890
8.876349,-1772,269,2971
8.881349,-1891,260,2646
8.886173,-1804,496,1796
8.891027,-1622,521,1664
8.896027,-1459,310,1594
8.900882,-1286,273,1915
8.905706,-1215,405,2317
8.910706,-1284,448,2394
8.915561,-1449,357,2365
8.920416,-1513,287,2183
8.925416,-1536,246,1935
8.930240,-1525,212,1790
8.935095,-1434,133,1719
8.940095,-1329,53,1583
8.944950,-1177,48,1403
8.949774,-1033,-40,1273
8.954774,-915,-200,1251
8.959629,-774,-284,1351
8.964483,-606,-331,1437
8.969483,-465,-297,1471
8.974338,-402,-233,1494
8.979162,-345,-252,1460
8.984162,-277,-225,1380
8.989017,-243,-177,1303
8.993872,-154,-179,1246
8.998872,-33,-133,1164
9.3358,55,-36,1076
9.8609,157,23,1024
9.13433,258,35,990
9.18433,317,62,923
9.23288,324,30,832
9.28143,298,-118,907
9.33143,241,-158,1149
9.37967,255,-197,1494
9.42822,294,-167,1739
9.47822,262,-92,1955
9.52677,392,-645,2622
9.57501,414,-754,3169
9.62501,-9,121,3387
9.67356,-211,312,3283
9.72210,-63,-199,2646
9.77210,-97,-420,2549
9.82065,-95,-220,2749
9.86889,17,-40,2474
9.91889,35,-170,2315
9.96744,148,-315,2317
9.101599,233,-356,2251
9.106599,221,-358,2151
9.111423,351,-461,2021
9.116278,507,-618,1853
9.121278,582,-527,1721
9.126132,582,-331,1731
9.130957,542,-186,1724
9.135957,553,-61,1669
9.140811,562,-54,1648
9.145666,576,-159,1635
9.150666,632,-220,1631
9.155490,685,-186,1642
9.160345,664,-158,1655
9.165345,658,-117,1619
9.170200,751,-68,1549
9.175024,814,-95,1546
9.180024,876,-172,1590
9.184879,969,-242,1565
9.189734,1040,-290,1494
9.194734,1132,-317,1456
9.199558,1251,-318,1392
9.204412,1362,-350,1333
9.209412,1423,-413,1301
9.214267,1433,-409,1233
9.219091,1446,-329,1176
9.224091,1469,-243,1158
9.228946,1515,-215,1117
9.233801,1542,-263,1049
9.238801,1544,-275,1030
9.243625,1583,-215,992
9.248480,1565,-233,926
9.253480,1519,-261,937
9.258335,1512,-175,898
9.263159,1528,-111,767
9.268159,1573,-142,712
9.273014,1556,-165,746
9.277868,1549,-100,751
9.282868,1594,-61,678
9.287693,1565,-113,673
9.292547,1571,-124,617
9.297547,1664,-67,458
9.302371,1674,-81,496
9.307226,1656,-77,499
9.312226,1655,-29,387
9.317081,1630,-92,385
9.321936,1664,-134,358
9.326936,1664,-150,274
9.331760,1571,-188,189
9.336615,1565,-143,16
9.341615,1528,-213,-136
9.346439,1428,-354,-111
9.351294,1415,-315,-111
9.356294,1337,-236,-159
9.361148,1246,-134,-104
9.365973,1164,99,-106
9.370973,1019,282,-2
9.375827,958,305,-102
9.380682,892,321,-18
9.385682,669,633,542
9.390506,819,1005,-1581
9.395361,1494,990,-4796
9.400361,1835,1244,-4568
9.405216,1851,1124,-3027
9.410040,2090,301,-2350
9.415040,2372,312,-2106
9.419895,2417,546,-2077
9.424749,2121,435,-2032
9.429749,1637,640,-2025
9.434574,1239,723,-1993
9.439428,974,662,-1975
9.444428,910,801,-2198
9.449283,1005,874,-2457
9.454107,964,949,-2473
9.459107,835,978,-2238
9.463962,883,546,-1718
9.468786,1019,-106,-1243
9.473786,1155,-506,-1136
9.478641,1203,-563,-1243
9.483496,1096,-333,-1429
9.488496,1005,-70,-1524
9.493320,994,144,-1643
9.498175,971,401,-1854
9.503175,944,376,-1873
9.508029,946,128,-1834
9.512854,908,146,-1870
9.517854,867,239,-1920
9.522708,867,187,-1968
9.527563,810,226,-1972
9.532563,705,326,-1913
9.537387,685,330,-1775
9.542242,705,216,-1674
9.547242,632,101,-1727
9.552097,558,69,-1786
9.556921,533,41,-1807
9.561921,401,71,-1800
9.566776,192,112,-1618
9.571600,66,35,-1411
9.576600,49,-6,-1356
9.581591,73,16,-1374
9.585955,37,-15,-1520
9.591207,55,-109,-1772
9.596207,157,-236,-1909
9.601062,103,-152,-1932
9.605886,-47,123,-1984
9.610886,-113,248,-2052
9.615741,-97,187,-2045
9.620595,-67,37,-2063
9.625595,-84,-74,-2090
9.630420,-72,-9,-1963
9.635274,-122,144,-1832
9.640274,-195,305,-1836
9.645129,-193,382,-1824
9.649953,-267,303,-1799
9.654953,-350,144,-1834
9.659808,-368,23,-1923
9.664663,-379,135,-2138
9.669663,-413,278,-2265
9.674487,-395,166,-2179
9.679342,-342,44,-2045
9.684342,-425,158,-1900
9.689196,-465,316,-1859
9.694021,-333,324,-1948
9.699021,-268,349,-2011
9.703875,-290,446,-2027
9.708700,-270,505,-1995
9.713700,-329,528,-1959
9.718554,-459,517,-1975
9.723409,-479,507,-1922
9.728409,-658,660,-1952
9.733233,-890,878,-2157
9.738088,-645,774,-2075
9.743088,-377,494,-1695
9.747943,-500,376,-1506
9.752767,-656,382,-1563
9.757767,-691,441,-1593
9.762622,-738,573,-1581
9.767476,-770,621,-1552
9.772476,-738,507,-1381
9.777301,-729,392,-1254
9.782155,-738,266,-1193
9.787155,-783,221,-1099
9.791980,-897,317,-1213
9.796834,-988,342,-1347
9.801834,-1043,278,-1307
9.806689,-1145,257,-1284
9.811513,-1216,226,-1200
9.816513,-1245,183,-1041
9.821368,-1402,262,-827
9.826223,-1524,358,-531
9.831223,-1563,385,-449
9.835709,-1691,408,-604
9.840960,-1824,366,-534
9.845785,-1891,299,-413
9.850785,-2009,316,-691
9.855639,-2211,317,-93
9.860494,-2215,174,-272
9.865494,-2029,-150,-2991
9.870318,-2179,-384,-2773
9.875173,-2588,-154,-2
9.880173,-2781,117,57
9.884997,-2841,203,-374
9.889852,-2939,310,219
9.894852,-3041,62,183
9.899707,-3157,-120,149
9.904531,-3236,58,526
9.909531,-3270,-2,557
9.914386,-3314,-206,532
9.919240,-3352,-231,821
9.924240,-3293,21,680
9.929065,-3191,107,680
9.933919,-3186,216,858
9.938919,-2747,837,-572
9.943774,-1988,571,-1386
9.948598,-1872,187,-693
9.953598,-2091,662,-586
9.958453,-2120,417,-684
9.963308,-2047,166,-708
9.968308,-1931,392,-554
9.973132,-2038,298,-292
9.977987,-2223,201,380
9.982987,-2331,489,899
9.987811,-2591,721,807
9.992666,-2788,503,1474
9.997666,-2804,410,2314
10.2520,-2731,407,2462
10.7345,-2425,64,2278
10.12345,-2115,-413,2385
10.17199,-1909,-438,2526
10.22054,-1743,-274,1744
10.27054,-1895,-504,1308
10.31878,-2048,-445,1594
10.36733,-1966,-61,1453
10.41733,-1918,-31,1317
10.46588,-1893,-152,1390
10.51412,-1811,-25,1344
10.56412,-1695,185,1408
10.61267,-1613,242,1562
10.66091,-1575,223,1767
10.71091,-1432,330,2001
10.75946,-1216,416,2222
10.80800,-1231,173,2530
10.85800,-1359,-249,2535
10.90625,-1438,-683,2260
10.95479,-1520,-952,2187
10.100479,-1516,-868,2144
10.105334,-1479,-490,1855
10.110158,-1461,39,1571
10.115158,-1404,339,1503
10.120013,-1293,292,1530
10.124868,-1186,201,1535
10.129868,-1083,101,1503
10.134692,-961,-29,1403
10.139547,-856,-99,1301
10.144547,-718,-140,1276
10.149401,-534,-150,1317
10.154226,-356,-113,1344
10.159226,-159,-88,1337
10.164080,24,-99,1355
10.168935,117,-168,1374
10.173935,221,-175,1344
10.178759,396,-54,1298
10.183614,510,33,1292
10.188614,548,74,1306
10.193469,587,117,1273
10.198293,608,146,1255
10.203293,542,91,1312
10.208148,412,-50,1471
10.213003,328,-134,1765
10.218003,312,-100,2062
10.222827,364,-6,2233
10.227682,417,53,2290
10.232682,355,64,2280
10.237506,341,119,2183
10.242360,364,194,1987
10.247360,201,78,1903
10.252215,203,-27,1906
10.257039,360,142,1824
10.262039,199,110,1723
10.266894,121,-108,1603
10.271749,278,-99,1449
10.276749,426,-79,1337
10.281573,617,-72,1274
10.286428,753,-11,1192
10.291428,901,-31,1214
10.296283,978,53,1157
10.301107,1053,49,1044
10.306107,1248,-338,1896
10.310962,1123,-624,2781
10.315816,901,-465,2390
10.320816,839,298,2383
10.325641,555,817,3253
10.330495,371,474,3369
10.335495,287,374,2749
10.340350,85,523,2371
10.345174,169,264,2101
10.350174,371,39,1828
10.355029,416,269,1751
10.359884,583,-500,1494
10.364884,742,-1547,1330
10.369708,535,-459,1583
10.374563,414,299,1683
10.379563,542,-363,1644
10.384417,614,-500,1706
10.389242,603,-445,1706
10.394242,537,-411,1631
10.399096,612,-49,1423
10.403951,735,128,1151
10.408951,705,-15,1065
10.413775,849,108,755
10.418630,1228,491,217
10.423630,1435,537,92
10.428454,1460,153,242
10.433309,1542,-75,396
10.438309,1665,-88,460
10.443164,1764,-224,471
10.447988,1778,-225,412
10.452988,1773,-47,119
10.457843,1844,-31,5
10.462697,1876,-234,57
10.467697,1824,-361,24
10.472522,1780,-350,32
10.477376,1808,-340,-183
10.482376,1830,-299,-390
10.487201,1801,-245,-324
10.492055,1751,-104,-345
10.497055,1680,112,-458
10.501910,1669,176,-436
10.506734,1778,124,-292
10.511734,1881,85,-250
10.516589,1903,14,-336
10.521413,1912,-70,-399
10.526413,1874,-61,-556
10.531268,1767,-52,-759
10.536123,1574,-125,-681
10.541123,1289,-158,-433
10.545947,939,-199,-211
10.550802,569,-442,289
10.555802,64,-1022,1217
10.560626,-758,-1536,2374
10.565481,-1056,-1882,1667
10.570481,-399,-2481,-1457
10.575335,39,-2463,-2513
10.579716,-72,-1318,-1018
10.584716,-192,-279,-261
10.589691,-225,-72,37
10.594912,-222,-147,-252
10.599766,-181,-45,-31
10.604766,-158,-79,512
10.609591,-417,-586,-2938
10.614445,-536,-1152,-3579
10.619445,-188,-408,403
10.624270,-158,1280,-3182
10.629124,-108,1235,-6382
10.634124,155,80,-1277
10.638610,-70,-200,707
10.643862,-233,-177,-258
10.648686,-163,82,178
10.653686,-172,-592,-52
10.658541,-193,32,67
10.663396,-106,724,114
10.668396,-254,-3307,-533
10.673220,-322,5786,1598
10.678075,21,9527,1155
10.683075,-92,1701,-5380
10.687899,-558,19540,-2336
10.692754,-988,17746,3188
10.697754,-975,-4336,-1459
10.702608,-784,-1500,-1895
10.707432,-908,701,28
10.712432,-1043,-1848,-945
10.717287,-1075,-513,-697
10.722111,-1195,-804,-547
10.727111,-1338,-997,-615
10.731966,-1125,-766,-749
10.736821,-1699,-966,-358
10.741821,-1188,-759,-634
10.746645,799,-24,-2393
10.751500,16,-429,-2143
10.756500,-2150,-838,258
10.761324,-2525,-916,-352
10.766179,817,-1099,-2304
10.771179,2433,-666,-1208
10.776003,-484,-375,-1202
10.780858,-1913,812,2488
10.785858,-1965,1162,5431
10.790713,-1224,-150,249
10.795537,-811,-188,-656
10.800537,-1240,49,808
10.805391,-1106,-133,-75
10.810216,-1056,-36,66
10.815216,-1111,-40,164
10.820070,-1125,-65,92
10.824925,-1070,98,-474
10.829925,-897,149,-1415
10.834749,-852,3,-1957
10.839604,-629,-38,-3141
10.844604,423,-752,-7126
10.849428,628,-2998,-12769
10.854283,-1229,-4936,-13411
10.859283,-2786,-4591,-8142
10.864138,-3204,-3272,-4080
10.868962,-3457,-2422,-2545
10.873962,-3398,-1441,-1616
10.878817,-3068,-474,-1083
10.883641,-2147,114,-183
10.888641,1046,466,362
10.893496,4608,-88,260
10.898350,4301,-475,-195
10.903350,2235,1,-990
10.908175,1542,226,-1838
10.913029,1298,460,-2931
10.918029,1067,789,-3511
10.922854,803,723,-2693
10.927708,517,535,-1561
10.932708,419,464,-1095
10.937563,366,419,-938
10.942387,333,385,-850
10.947387,333,382,-868
10.952242,360,432,-886
10.957066,424,505,-877
10.962066,453,594,-986
10.966921,442,701,-1125
10.971776,471,726,-1208
10.976776,512,703,-1295
10.981600,566,610,-1338
10.986455,664,378,-1424
10.991455,851,158,-1545
10.996279,1169,-81,-1538
11.1134,1544,-442,-1554
11.6134,1833,-856,-1338
11.10988,1889,-1345,-531
11.15813,2194,-1636,387
11.20813,3279,-1479,2076
11.25667,3038,-1118,3779
11.30492,612,-988,3067
11.35492,-1243,-559,2119
11.40346,-2275,376,2214
11.45171,-3038,171,1055
11.50171,-2706,-1336,939
11.55025,-2979,-3514,4267
11.59880,-4102,-5223,6472
11.64880,-3607,-5659,4490
11.69704,-3000,-6235,2219
11.74559,-3330,-5994,1758
11.79559,-2757,-4511,1360
11.84414,-1873,-3348,799
11.89238,-1381,-2456,530
11.94238,-858,-1774,371
11.99093,-447,-1393,316
11.103917,-272,-1149,307
11.108917,-195,-936,291
11.113772,-184,-825,258
11.118626,-297,-1083,251
11.123626,-193,-567,217
11.128451,-375,-1465,221
11.133305,-490,-1413,101
11.138305,82,953,-574
11.143130,-1586,-6269,-2025
11.147984,-3216,-10471,-2822
11.152984,-2063,-3127,-620
11.157839,-1397,-1684,-368
11.162663,-1449,-1952,-886
11.167663,-1645,-620,1328
11.172518,-702,-1288,-3850
11.177373,-2104,7733,-342
11.182373,-5757,15016,11066
11.187197,715,646,871
11.192052,6977,-13865,-8403
11.197052,-713,-11044,-3120
11.201906,-4327,-3354,-2270
11.206731,-775,-1682,-4005
11.211731,-1154,-3782,-3225
11.216585,-1445,-4470,-2397
11.221410,-716,-3927,-1863
11.226410,-761,-3388,-1197
11.231264,-625,-2875,-752
11.236088,-467,-2152,-377
11.241088,-336,-1424,21
11.245943,-265,-943,258
11.250798,-268,-706,216
11.255798,-274,-583,67
11.260622,-236,-520,-56
11.265477,-193,-618,-84
11.270477,-200,-884,-50
11.275332,-184,-1281,-8
11.280156,-152,-1634,153
11.285156,-231,-1732,267
11.290011,-402,-1704,253
11.294835,-574,-1811,299
11.299835,-745,-2081,507
11.304690,-909,-2325,923
11.309544,-906,-2463,1123
11.314544,-733,-2556,623
11.319369,-663,-2745,260
11.324223,-622,-2891,578
11.329223,-374,-2797,939
11.334078,-272,-2857,1226
11.338902,-563,-3020,1421
11.343902,-877,-2727,1480
11.348757,-977,-2173,1442
11.353612,-965,-1766,1239
11.358612,-884,-1420,1035
11.363436,-875,-1147,885
11.368291,-1068,-1232,903
11.373291,-825,-1158,948
11.378115,-92,-595,740
11.382970,183,-365,724
11.387970,-120,-533,996
11.392824,-450,-745,1260
11.397649,-631,-993,1610
11.402649,-818,-1152,1844
11.407503,-700,-1377,1596
11.411989,-283,-1600,990
11.417241,-361,-1774,1176
11.422241,-470,-1998,1265
11.427065,282,-1763,-1081
11.431920,869,-1893,-2098
11.436920,407,-3427,640
11.441775,-513,-3896,2365
11.446599,-1106,-2663,2215
11.451599,-1181,-2427,2406
11.456453,-1111,-2182,1731
11.461278,-1049,-1093,251
11.466278,-908,-1195,291
11.471132,-666,-1684,1212
11.475987,-492,-1561,1526
11.480987,-520,-1552,1594
11.485811,-668,-1541,1428
11.490666,-915,-1484,1055
11.495666,-1108,-1597,924
11.500490,-1059,-1820,978
11.505345,-1025,-1818,899
11.510345,-815,-2177,278
11.515200,-281,-2616,-456
11.520024,-474,-1261,201
11.525024,-1002,394,2126
11.529879,-404,469,3524
11.534703,555,-415,3812
11.539703,432,-1563,3510
11.544558,-200,-1834,2308
11.549412,-134,-1538,946
11.554412,180,-1657,719
11.559237,251,-1682,758
11.564091,-9,-1104,940
11.569091,-891,-579,1580
11.573946,-1632,-908,1803
11.578770,-1707,-1291,1860
11.583770,-1597,-1325,2203
11.588287,-1407,-1490,2437
11.593508,-1025,-1590,2319
11.598363,-715,-1481,2164
11.603363,-615,-1495,2014
11.608187,-620,-1925,1635
11.613042,-845,-1843,1906
11.618042,-995,-1247,2367
11.622866,-816,-1447,2244
11.627721,-924,-1727,2481
11.632721,-1399,-1420,2644
11.637545,-1597,-1288,2301
11.642400,-1645,-1406,2192
11.647400,-1879,-1393,2255
11.652254,-2286,-1434,2414
11.657078,-2736,-1486,2533
11.662078,-2622,-1090,1896
11.666933,-2293,-924,1687
11.671757,-2506,-1338,2571
11.676757,-2670,-1799,3055
11.681612,-2400,-2173,2699
11.686467,-2059,-1893,1996
11.691467,-1954,-1050,1856
11.696291,-2059,-674,2401
11.701146,-2190,-647,2821
11.706146,-2256,-263,2853
11.710970,-2315,71,2737
11.715825,-2248,10,2849
11.720825,-1961,-224,3021
11.725649,-1741,-402,2762
11.730504,-1588,-317,2439
11.735504,-1322,-356,2671
11.740328,-1043,-497,2933
11.745183,-874,-542,2731
11.750183,-902,-720,2728
11.755037,-991,-897,2772
11.759862,-1015,-854,2342
11.764862,-966,-720,1897
11.769716,-811,-704,1701
11.774541,-761,-604,1674
11.779541,-797,-520,1846
11.784395,-754,-659,2046
11.789250,-718,-629,2146
11.794250,-816,-486,2231
11.799074,-1015,-504,2381
11.803929,-1165,-590,2519
11.808929,-1234,-672,2490
11.813784,-1197,-688,2455
11.818608,-1009,-656,2396
11.823608,-741,-533,2060
11.828463,-517,-268,1496
11.833287,-377,-70,919
11.838287,-415,19,648
11.843142,-418,-42,730
11.847996,-131,-422,392
11.852996,-170,-713,203
11.857821,-561,-740,255
11.862675,-570,-993,-1550
11.867675,-716,-1238,-2181
11.872530,-1106,-1133,-475
11.877354,-931,-863,-834
11.882354,-784,-586,-1752
11.887209,-963,-420,-1479
11.892033,-840,-190,-1466
11.897033,-733,101,-1524
11.901888,-952,271,-1450
11.906743,-1184,466,-1340
11.911743,-1432,599,-1175
11.916567,-1691,551,-1152
11.921422,-1713,457,-1224
11.926422,-1602,478,-1168
11.931276,-1409,396,-1336
11.936101,-1211,-17,-1704
11.941101,-1143,-279,-1557
11.945955,-1040,-299,-1340
11.950810,-888,-306,-1491
11.955810,-741,-281,-1565
11.960634,-606,-333,-1475
11.965489,-520,-459,-1325
11.970489,-415,-592,-1247
11.975313,-286,-702,-1215
11.980168,-209,-802,-1116
11.985168,-93,-893,-1129
11.990023,137,-961,-1340
11.994847,285,-1038,-1447
11.999847,278,-1077,-1497
12.4702,262,-1025,-1700
12.9557,278,-906,-1668
12.14557,312,-740,-1391
12.19381,299,-570,-1388
12.24235,244,-388,-1745
12.29235,148,-293,-1915
12.34090,58,-245,-1747
12.38914,124,-54,-1725
12.43914,124,-2,-1797
12.48769,7,-106,-1777
12.53593,-58,-108,-1809
12.58593,-83,-102,-1779
12.63448,-68,-133,-1649
12.68303,-97,-172,-1641
12.73303,-142,-208,-1724
12.78127,-172,-206,-1752
12.82982,-215,-134,-1770
12.87982,-267,-20,-1847
12.92837,-345,16,-1982
12.97661,-397,16,-2043
12.102661,-400,21,-2082
12.107516,-422,10,-2154
12.112370,-490,74,-2157
12.117370,-529,112,-2220
12.122194,-513,60,-2297
12.127049,-533,66,-2236
12.132049,-559,51,-2247
12.136873,-577,-18,-2354
12.141728,-581,-49,-2475
12.146728,-500,-99,-2695
12.151583,-484,-150,-2881
12.156407,-575,-133,-2845
12.161407,-622,-70,-2663
12.166262,-624,53,-2516
12.170748,-509,94,-2216
12.175999,-593,287,-1707
12.180999,-897,512,-1427
12.185854,-618,-359,-1152
12.190678,-329,-677,-777
12.195678,-754,698,-863
12.200533,-1300,1340,-868
12.205388,-1140,698,-1109
12.210388,-752,428,-1031
12.215212,-1365,-150,-402
12.220067,-120,-663,-3343
12.225067,1596,2169,-5089
12.229922,-450,3094,-1593
12.234746,-1482,-577,-688
12.239746,-486,-1313,-2543
12.244600,-454,-277,-2473
12.249455,-608,-800,-1566
12.254455,-634,-645,-1879
12.259279,-275,23,-1690
12.264134,-331,-97,-956
12.269134,-631,-549,-1579
12.273958,-443,-436,-1866
12.278813,-459,-272,-1702
12.283813,-517,-70,-1925
12.288668,-486,162,-1941
12.293492,-493,87,-1915
12.298492,-500,101,-2061
12.303347,-474,141,-2027
12.308202,-336,194,-1984
12.313202,-322,210,-2107
12.318026,-367,-27,-2015
12.322880,-233,-192,-1838
12.327880,-158,-184,-1782
12.332735,-215,-240,-1731
12.337559,-236,-279,-1618
12.342559,-256,-222,-1470
12.347414,-84,-92,-1424
12.352269,-417,87,-1559
12.357269,-386,-49,-1436
12.362093,71,280,-1097
12.366948,-1654,376,-1777
12.371948,1599,-261,-977
12.376772,6049,1042,612
12.381627,962,2455,-2190
12.386627,-2702,2917,-2216
12.391482,-1618,1765,-193
12.396336,-783,-567,-3875
12.401336,160,-425,-4170
12.406161,89,-86,-1518
12.411015,-29,-438,-2063
12.416015,171,-327,-2091
12.420870,210,-374,-1763
12.425694,282,-492,-1988
12.430694,316,-559,-1948
12.435549,228,-415,-1947
12.440373,33,-120,-1925
12.445373,-72,-18,-1882
12.450228,-54,-67,-1936
12.455083,-52,-36,-1941
12.460083,-72,-2,-1922
12.464907,-88,-20,-1941
12.469762,-59,-56,-1940
12.474762,-38,-59,-1941
12.479616,-47,-24,-1920
12.484471,-43,-42,-1890
12.489471,-34,-47,-1898
12.494295,-29,-2,-1906
12.499150,-45,-22,-1913
12.504150,-22,35,-1881
12.508974,-22,64,-1909
12.513829,-68,-84,-1973
12.518829,-33,-142,-1973
12.523684,3,-93,-1986
12.528508,-18,-50,-1943
12.533508,-31,-40,-1920
12.538363,-25,-49,-1986
12.543217,0,-34,-1981
12.548217,-4,-29,-1929
12.553072,-25,-29,-1916
12.557896,-18,-24,-1948
12.562896,-25,-36,-1959
12.567751,-40,-50,-1931
12.572606,-36,-36,-1934
12.577606,-47,-40,-1950
12.582247,-58,-63,-1966
12.586947,-45,-42,-1968
12.592168,-18,-20,-1932
12.597168,-4,-40,-1909
12.602022,-24,-47,-1890
12.606877,-45,-33,-1922
12.611877,-33,-38,-1990
12.616701,-36,-36,-1956
12.621556,-45,-38,-1938
12.626556,-54,-52,-1959
12.631411,-61,-36,-1938
12.636235,-29,-24,-1948
12.641235,-22,-20,-1966
12.646090,-27,-15,-1954
12.650944,-18,-25,-1943
12.655944,-42,-40,-1954
12.660769,-45,-25,-1968
12.665623,-49,-33,-1975
12.670623,-54,-45,-1977
12.675478,-13,-20,-1961
12.680302,-9,-11,-1936
12.685302,-31,-34,-1943
12.690157,-38,-40,-1956
12.695012,-27,-8,-1956
12.700012,-15,-6,-1973
12.704836,-29,-42,-1963
12.709691,-29,-59,-1941
12.714691,-17,-47,-1940
12.719546,-17,-22,-1929
12.724370,-25,-24,-1925
12.729370,-31,-36,-1950
12.734224,-34,-38,-1973
12.739079,-40,-34,-1984
12.744079,-36,-40,-1963
12.748903,-24,-45,-1934
12.753758,-13,-25,-1956
12.758758,-9,-25,-1948
12.763582,-17,-36,-1940
12.768437,-31,-31,-1934
12.773437,-34,-33,-1916
12.778292,-17,-18,-1968
12.783116,-25,-18,-1972
12.788116,-56,-52,-1915
12.792971,-56,-56,-1911
12.797826,-49,-33,-1941
12.802826,-15,-15,-1954
12.807680,64,19,-1943
12.812505,26,1,-1941
12.817505,-133,-67,-1947
12.822359,-152,-75,-1950
12.827183,-47,-31,-1948
12.832183,-15,-18,-1952
12.837038,-36,-36,-1966
12.841893,-38,-36,-1938
12.846893,-50,-36,-1911
12.851717,-68,-36,-1918
12.856572,-49,-27,-1934
12.861572,-8,-25,-1923
12.866427,-2,-17,-1882
12.871251,-27,-22,-1934
12.876251,-29,-34,-1972
12.881106,-25,-27,-1948
12.885930,-40,-47,-1975
12.890930,-58,-49,-1957
12.895785,-40,-22,-1938
12.900639,-24,-42,-1957
12.905639,-25,-38,-1956
12.910463,-4,-15,-1973
12.915318,-31,-20,-1968
12.920318,-58,-20,-1972
12.925173,-42,-22,-2006
12.929997,-36,-18,-1940
12.934997,-22,-17,-1893
12.939852,-13,-34,-1929
12.944707,-8,-33,-1916
12.949707,-34,-22,-1907
12.954531,-74,-33,-1947
12.959386,-29,-31,-1956
12.964386,-25,-18,-1931
12.968872,-77,-34,-1934
12.974123,-50,-38,-1952
12.978978,-36,-22,-1931
12.983978,-52,-27,-1922
12.988802,-34,-36,-1979
12.993657,-11,-25,-1959
12.998657,42,-59,-1922
13.3512,67,-142,-1991
13.8336,80,-52,-1973
13.13336,92,107,-1915
13.18191,-17,53,-1957
13.23045,-75,-36,-1966
13.28045,-67,-20,-1961
13.32870,-109,0,-1984
13.37724,-115,-8,-1961
13.42724,-65,-20,-1947
13.47548,-72,-38,-1957
13.52403,-140,-58,-1947
13.57403,-86,-50,-1941
13.62258,-25,-38,-1943
13.67082,-67,-18,-1911
13.72082,-58,-27,-1906
13.76937,-22,-24,-1950
13.81792,-13,49,-1941
13.86792,-47,107,-1940
13.91616,-75,142,-1959
13.96471,-33,73,-1936
13.101471,3,23,-1929
13.106325,-33,99,-1950
13.111150,-97,85,-1979
13.116150,-77,1,-1965
13.121004,-15,-117,-1913
13.125859,7,-229,-1920
13.130859,14,-161,-1945
13.135683,-6,-43,-1927
13.140538,-63,-49,-1927
13.145538,-67,-97,-1986
13.150393,-38,-140,-2027
13.155217,-4,-133,-2084
13.160217,42,-74,-2431
13.165072,-6,-68,-2627
13.169926,-24,-109,-2288
13.174926,48,-188,-2204
13.179751,33,-245,-2472
13.184605,55,-136,-2779
13.189605,191,-68,-3450
13.194460,276,-161,-4170
13.199284,251,-174,-4457
13.204284,103,21,-4455
13.209139,-74,382,-4082
13.213994,-172,541,-3554
13.218994,-170,303,-3463
13.223818,0,1,-3875
13.228673,33,-75,-4571
13.233673,1,5,-4843
13.238527,539,-120,-4964
13.243352,614,71,-5887
13.248352,-97,649,-5757
13.253206,0,749,-4795
13.258061,-118,1015,-5718
13.263061,-811,1455,-6521
13.267885,-209,1264,-5987
13.272740,321,1201,-6071
13.277740,-209,1385,-6335
13.282595,-172,1194,-6253
13.287419,341,974,-6394
13.292419,398,803,-6428
13.297274,235,551,-6112
13.302129,92,385,-5609
13.307129,3,180,-5100
13.311953,53,-50,-4843
13.316807,149,-256,-4759
13.321807,298,-459,-4500
13.326662,355,-684,-4139
13.331486,192,-1011,-3839
13.336486,21,-1156,-3320
13.341341,-145,-1095,-2489
13.346196,-677,-1015,-1556
13.351196,-1183,-913,-599
13.356020,-1118,-1229,176
13.360875,-931,-1991,749
13.365875,-631,-2677,1306
13.370730,-79,-3325,1851
13.375554,326,-4007,2463
13.380554,571,-4634,3338
13.385409,921,-5343,4506
13.390263,1399,-6266,5708
13.395263,1880,-7385,7054
13.400088,2414,-8582,8688
13.404942,3019,-9783,10238
13.409942,3431,-10796,11464
13.414797,3358,-11449,12334
13.419621,2694,-11724,12844
13.424621,1478,-11558,12816
13.429476,-92,-10997,11898
13.434331,-1684,-10167,10147
13.439331,-3006,-9194,7827
13.444155,-3923,-8185,5085
13.449010,-4539,-7223,2290
13.454010,-4862,-6335,-347
13.458864,-4925,-5355,-2877
13.463689,-5018,-3998,-4855
13.468689,-5241,-2438,-5877
13.473543,-5614,-1197,-6393
13.478398,-6246,-150,-7101
13.483398,-6748,1078,-8216
13.488222,-6816,2458,-9981
13.493077,-6723,4017,-12397
13.498077,-6544,5922,-14917
13.502932,-6473,8049,-16768
13.507756,-6560,9907,-17532
13.512756,-6552,11168,-17797
13.517611,-6385,11875,-17929
13.522465,-5932,12155,-17770
13.527465,-5373,12016,-17268
13.532290,-4934,11325,-16381
13.537144,-4516,10068,-15217
13.542144,-4143,8468,-13942
13.546999,-3688,6802,-12726
13.551823,-3148,5095,-11617
13.556823,-2732,3322,-10605
13.561678,-2343,1801,-9690
13.566533,-2084,680,-8898
13.571533,-2045,-268,-8367
13.576357,-1966,-1145,-7951
13.580997,-1793,-1997,-7535
13.585727,-1575,-2788,-7300
13.590979,-1363,-3418,-7157
13.595979,-1158,-4021,-7012
13.600833,-975,-4684,-6878
13.605688,-822,-5307,-6559
13.610688,-636,-5894,-5975
13.615512,-470,-6434,-5261
13.620367,-363,-6819,-4537
13.625367,-300,-7044,-3816
13.630222,-368,-7189,-3134
13.635046,-488,-7309,-2379
13.640046,-479,-7492,-1474
13.644901,-404,-7828,-666
13.649725,-295,-8216,46
13.654725,-4,-8751,908
13.659580,521,-9699,1951
13.664434,1137,-10864,3249
13.669434,1674,-11929,4997
13.674259,2042,-12808,7245
13.679113,2181,-13394,9816
13.684113,2039,-13552,12453
13.688968,1514,-13111,14726
13.693792,689,-12290,16010
13.698792,-275,-11440,16090
13.703647,-1440,-10424,15039
13.708471,-2645,-9355,13035
13.713471,-3689,-8450,10548
13.718326,-4598,-7659,7940
13.722812,-5412,-7091,5351
13.727725,-5994,-6684,2887
13.732977,-6225,-6094,669
13.737977,-6302,-5253,-1277
13.742801,-6298,-4314,-2906
13.747656,-6059,-3413,-4241
13.752656,-5611,-2595,-5380
13.757480,-5148,-1802,-6000
13.762335,-4841,-1034,-5934
13.767335,-4800,-465,-5796
13.772159,-4912,-193,-6000
13.777014,-4829,-29,-6396
13.782014,-4530,233,-7137
13.786869,-4211,757,-8432
13.791693,-3963,1744,-10151
13.796693,-3809,3288,-11837
13.801547,-3814,5242,-13053
13.806402,-4052,7274,-13758
13.811402,-4361,8975,-13940
13.816226,-4602,10284,-13956
13.821081,-4793,11379,-13931
13.826081,-4777,12014,-13415
13.830905,-4632,12182,-12737
13.835760,-4580,12089,-12276
13.840760,-4464,11593,-11530
13.845615,-4239,10716,-10333
13.850439,-4061,9523,-9273
13.855439,-3859,8081,-8471
13.860294,-3507,6602,-7701
13.865149,-3056,5261,-7014
13.870149,-2675,4104,-6584
13.874973,-2395,2967,-6480
13.879828,-2054,1962,-6457
13.884828,-1806,1223,-6355
13.889682,-1747,562,-6248
13.894506,-1700,32,-6121
13.899506,-1643,-484,-6028
13.904361,-1525,-1165,-5962
13.909185,-1361,-1813,-5748
13.914185,-1272,-2397,-5477
13.919040,-1213,-2957,-5186
13.923864,-1072,-3397,-4800
13.928864,-949,-3793,-4264
13.933719,-863,-4252,-3472
13.938574,-706,-4687,-2627
13.943574,-579,-4971,-1879
13.948398,-588,-5137,-1125
13.953253,-652,-5359,-445
13.958253,-616,-5705,173
13.963108,-399,-6257,1019
13.967932,57,-7218,2056
13.972932,935,-8939,3497
13.977786,2142,-11226,5801
13.982611,3285,-13478,8436
13.987611,4099,-15390,11057
13.992465,4317,-16308,13714
13.997320,3758,-16091,16023
14.2320,2481,-15379,17369
14.7144,665,-14374,16937
14.11999,-1345,-13035,14735
14.16999,-3125,-11540,11798
14.21854,-4530,-10205,8654
14.26678,-5625,-9255,5342
14.31678,-6384,-8624,2201
14.36533,-6821,-7998,-620
14.41388,-7012,-7125,-3223
14.46388,-7037,-5812,-5405
14.51212,-7023,-4104,-6814
14.56067,-6984,-2388,-7407
14.61067,-6757,-1009,-7575
14.65921,-6275,-199,-7773
14.70745,-5591,35,-8232
14.75745,-4812,-88,-8948
14.80600,-4120,-267,-9644
14.85455,-3684,-63,-10333
14.90455,-3491,678,-11381
14.95279,-3398,1921,-12542
14.100134,-3586,3956,-13963
14.105134,-3913,6272,-14809
14.109958,-4193,8270,-13904
14.114813,-4995,10264,-14243
14.119813,-5791,11709,-15454
14.124668,-5632,12375,-13710
14.129492,-5211,12519,-11324
14.134492,-5293,11980,-10474
14.139347,-5484,11346,-9660
14.144201,-5457,10877,-8464
14.149201,-5462,10202,-7434
14.154026,-5427,9295,-6812
14.158880,-5136,8236,-6452
14.163880,-4745,7052,-6280
14.168704,-4368,5804,-6219
14.173559,-3977,4642,-6144
14.178559,-3645,3619,-6116
14.183414,-3389,2644,-6144
14.188238,-3157,1773,-6214
14.193238,-2945,994,-6248
14.198093,-2756,257,-6164
14.202948,-2609,-363,-6037
14.207948,-2481,-961,-5948
14.212772,-2348,-1599,-5839
14.217627,-2236,-2161,-5609
14.222627,-2122,-2711,-5312
14.227481,-2002,-3270,-4955
14.232306,-1940,-3759,-4423
14.237306,-1979,-4268,-3752
14.242160,-1968,-4852,-3032
14.246984,-1741,-5428,-2252
14.251984,-1402,-5980,-1413
14.256839,-1088,-6534,-659
14.261694,-804,-7066,57
14.266694,-468,-7630,944
14.271518,-2,-8371,2124
14.276373,596,-9494,3671
14.281373,1233,-11006,5533
14.286197,2055,-12729,7879
14.291052,3217,-14427,10491
14.296052,4126,-15609,12634
14.300907,4240,-15861,14392
14.305731,3610,-15133,15739
14.310731,2296,-13763,15896
14.315586,532,-12312,14776
14.320410,-1286,-10960,12736
14.325410,-2852,-9753,9902
14.330265,-4082,-8858,6658
14.335119,-5043,-8176,3597
14.340119,-5632,-7557,767
14.344943,-5800,-6868,-2020
14.349798,-5791,-5748,-4462
14.354798,-5703,-4166,-6148
14.359653,-5478,-2489,-6951
14.364477,-5262,-1036,-6909
14.369477,-5148,-292,-6332
14.374332,-4998,-515,-5762
14.379156,-4750,-1111,-5553
14.384156,-4484,-1402,-5825
14.389011,-4105,-1309,-6448
14.393866,-3647,-1090,-7366
14.398866,-3309,-777,-8766
14.403690,-3056,-61,-10489
14.408545,-2879,1173,-12251
14.413545,-2877,2863,-13831
14.418369,-2997,4861,-14924
14.423224,-3113,6759,-15402
14.428224,-3270,8263,-15252
14.432710,-3409,9145,-14526
14.437961,-3405,9320,-13513
14.442816,-3375,9059,-12506
14.447816,-3297,8691,-11610
14.452640,-3120,8324,-10842
14.457495,-2966,7874,-10262
14.462495,-2841,7338,-9826
14.467319,-2741,6688,-9289
14.472174,-2629,5915,-8707
14.477174,-2472,5165,-8216
14.482028,-2393,4365,-7591
14.486853,-2357,3346,-6930
14.491853,-2231,2306,-6514
14.496707,-2065,1451,-6278
14.501532,-1907,615,-6103
14.506532,-1716,-202,-6030
14.511386,-1515,-800,-6066
14.516211,-1391,-1300,-6043
14.521211,-1391,-1734,-5875
14.526065,-1402,-2136,-5686
14.530920,-1381,-2734,-5268
14.535920,-1418,-3304,-4537
14.540744,-1456,-3713,-3863
14.545599,-1472,-4045,-3239
14.550599,-1513,-4246,-2547
14.555423,-1554,-4477,-1916
14.560278,-1588,-4748,-1343
14.565278,-1681,-4868,-609
14.570133,-1761,-4900,307
14.574957,-1779,-4980,1310
14.579957,-1918,-5007,2521
14.584474,-2125,-5025,4020
14.589694,-2381,-5055,5806
14.594549,-2859,-5005,7968
14.599549,-3209,-5323,10714
14.604404,-3277,-5855,13868
14.609228,-3330,-6027,16844
14.614228,-3213,-6152,19274
14.619083,-2938,-6305,20815
14.623938,-2966,-6325,20888
14.628938,-3557,-6189,19090
14.633762,-4380,-5791,16017
14.638617,-5089,-5459,12637
14.643617,-5791,-5448,9263
14.648441,-6393,-5639,6056
14.653296,-6660,-5948,3321
14.658296,-6735,-6293,1005
14.663150,-6659,-6544,-1277
14.667974,-6046,-6580,-3641
14.672974,-4846,-6255,-5834
14.677829,-3623,-5495,-7519
14.682684,-2593,-4687,-8437
14.687684,-1649,-4300,-8594
14.692508,-1022,-4384,-8205
14.697363,-570,-4887,-7746
14.702363,0,-5618,-7559
14.707187,639,-6341,-7473
14.712042,1439,-7048,-7571
14.717042,2419,-7823,-8169
14.721866,3433,-8505,-9183
14.726721,4217,-8846,-10380
14.731721,4817,-8732,-11842
14.736576,5483,-8025,-13458
14.741400,5843,-6848,-14672
14.746400,5801,-5662,-15276
14.751255,5597,-4727,-15238
14.756109,5058,-4025,-14560
14.761109,4356,-3629,-13572
14.765933,3942,-3575,-12554
14.770788,3660,-3741,-11687
14.775788,3315,-3854,-11005
14.780612,2980,-3718,-10296
14.785467,2533,-3593,-9564
14.790467,1872,-3520,-8767
14.795322,1246,-3416,-7823
14.800146,726,-3529,-6825
14.805146,144,-3698,-5723
14.810001,-233,-3884,-4714
14.814825,-486,-4279,-3886
14.819825,-840,-4795,-3007
14.824680,-1095,-5191,-2191
14.829535,-1307,-5155,-1393
14.834535,-1350,-5087,-599
14.839359,-1649,-5093,-167
14.844213,-2013,-5055,271
14.849213,-2009,-5030,1135
14.854068,-3455,-4038,1619
14.858892,-4443,-3255,1855
14.863892,-2954,-3668,2880
14.868747,-2382,-3577,4110
14.873571,-3125,-3275,5017
14.878571,-3988,-2977,5301
14.883426,-5418,-2036,4574
14.888281,-6550,-1036,4613
14.893281,-7093,246,5952
14.898105,-7987,1951,6858
14.902960,-9410,3819,7684
14.907960,-11101,6267,8756
14.912784,-12574,8652,9493
14.917639,-13261,9786,10170
14.922639,-13044,9231,10404
14.927494,-11917,7317,9914
14.932318,-10087,4842,8907
14.937318,-8105,2422,6956
14.942172,-7301,808,4692
14.946997,-6600,-190,3122
14.951997,-4043,-1900,1639
14.956851,-2322,-3252,249
14.961676,-2232,-3006,-358
14.966676,-1640,-2673,-422
14.971530,-888,-2788,-425
14.976355,-545,-2820,-411
14.981355,-525,-2731,-347
14.986209,-454,-2759,-445
14.991034,-175,-3011,-322
14.996034,199,-3343,166
15.888,901,-4146,617
15.5743,1549,-5070,944
15.10743,2260,-5952,1278
15.15567,3531,-7282,1589
15.20422,4944,-8391,823
15.25422,6742,-11133,1912
15.30246,9361,-14029,4690
15.35101,10988,-13149,3563
15.40101,10679,-12762,3104
15.44956,10152,-12872,4870
15.49780,9629,-10967,4367
15.54780,8679,-9905,3574
15.59635,7959,-9362,3183
15.64459,7483,-8701,2617
15.69459,6924,-8426,2406
15.74314,6284,-8025,2303
15.79168,5542,-7537,2192
15.84168,4651,-7055,2272
15.88993,3703,-6534,2494
15.93847,2797,-6103,2630
15.98847,2022,-5743,2655
15.103672,1383,-5353,2571
15.108526,769,-5093,2472
15.113526,269,-4941,2442
15.118381,-122,-4629,2435
15.123205,-765,-4288,2451
15.128205,-1468,-3930,2405
15.133060,-1791,-3404,2040
15.137884,-2202,-3011,1760
15.142884,-2841,-2779,2030
15.147739,-3216,-2357,2339
15.152225,-3447,-1788,2405
15.157476,-3818,-1309,2326
15.162476,-4380,-858,2171
15.167331,-5034,-383,2101
15.172155,-5736,78,2053
15.177155,-6696,878,2024
15.182010,-7978,2122,1989
15.186834,-9471,3403,1953
15.191834,-10905,4920,2155
15.196689,-11999,6708,2389
15.201544,-12704,7924,2349
15.206544,-12819,8300,2142
15.211368,-12285,8024,1892
15.216223,-11419,7142,1674
15.221223,-10353,5856,1346
15.226078,-9333,4528,740
15.230902,-8480,3317,324
15.235902,-7571,2144,366
15.240756,-7337,1356,146
15.245611,-7196,748,-222
15.250611,-5982,-218,-247
15.255435,-4955,-831,-381
15.260290,-4398,-1140,-738
15.265290,-3614,-1820,-1215
15.270114,-2988,-2552,-1504
15.274969,-2647,-3050,-1590
15.279969,-2273,-3497,-2282
15.284824,-1790,-4213,-3073
15.289648,-1191,-5134,-2872
15.294648,-95,-6289,-2072
15.299503,1299,-7825,-1559
15.304358,2844,-9414,-579
15.309358,4583,-10333,1255
15.314182,5140,-9881,880
15.319036,4347,-8876,-2147
15.324036,4092,-8478,-3773
15.328891,4922,-8117,-3641
15.333715,6172,-7826,-3647
15.338715,7533,-8667,-3854
15.343570,8270,-9278,-4577
15.348425,7925,-8108,-5655
15.353425,7242,-6319,-5794
15.358249,6458,-4579,-5977
15.363104,5261,-3141,-7116
15.368104,4129,-2423,-6157
15.372959,3240,-1879,-3998
15.377783,2147,-1397,-3389
15.382783,1030,-1074,-2736
15.387638,55,-590,-1847
15.392462,-974,-24,-988
15.397462,-1831,401,362
15.402317,-2750,1469,1276
15.407171,-4100,3005,1290
15.412171,-5000,4799,2328
15.416995,-4650,7508,3722
15.421850,-3466,9607,2065
15.426850,-2695,10413,-511
15.431705,-1997,10232,-1324
15.436529,-313,8482,-3000
15.441529,401,6045,-5148
15.446384,-549,4010,-4263
15.451208,-638,1669,-1072
15.456208,653,-234,499
15.461063,1717,-452,-1224
15.465918,2017,-600,-1970
15.470918,2328,-2132,-256
15.475742,2671,-4373,624
15.480597,2553,-5769,310
15.485597,2505,-5973,-322
15.490421,2465,-5798,-184
15.495276,2183,-5241,462
15.500276,2108,-4400,271
15.505130,2087,-3647,-543
15.509954,2196,-2913,-1527
15.514954,2513,-2234,-2270
15.519809,2547,-1490,-2891
15.524664,2544,-922,-3532
15.529664,2756,-552,-3630
15.534488,2633,-2,-3723
15.539343,2453,569,-4554
15.544343,2599,808,-5264
15.549198,2469,701,-5357
15.554022,2017,514,-5559
15.559022,1553,394,-5873
15.563877,980,307,-6228
15.568701,274,78,-6743
15.573701,-597,-84,-6810
15.578556,-1013,342,-7641
15.583042,-1131,441,-8866
15.588293,-2432,216,-8007
15.593293,-3750,1080,-7289
15.598148,-3920,2192,-7984
15.602972,-4073,2815,-8289
15.607972,-4307,3356,-8307
15.612827,-4514,3988,-8219
15.617651,-4671,4729,-7982
15.622651,-4577,5199,-7785
15.627506,-4323,5315,-7873
15.632360,-3779,5310,-8258
15.637360,-3680,5361,-8200
15.642185,-4216,5540,-7571
15.647039,-4255,5649,-7287
15.652039,-3780,5349,-7675
15.656864,-3179,4615,-7903
15.661718,-2734,3872,-7675
15.666718,-2725,3297,-7634
15.671573,-2732,2762,-7709
15.676397,-2814,2156,-8153
15.681397,-3230,1798,-8521
15.686252,-3520,1683,-7710
15.691076,-3639,940,-7141
15.696076,-4080,-158,-7362
15.700931,-4595,-768,-7248
15.705786,-4695,-1225,-6091
15.710786,-4473,-1799,-3845
15.715610,-4038,-2181,-2606
15.720465,-3691,-1916,-3154
15.725465,-3486,-961,-3591
15.730289,-3372,-118,-3791
15.735144,-3746,124,-4184
15.740144,-4259,139,-4091
15.744998,-4487,144,-3745
15.749823,-4621,71,-3468
15.754823,-4661,39,-3186
15.759677,-4714,23,-3004
15.764502,-4879,-59,-2902
15.769502,-5016,-113,-2736
15.774356,-5159,-274,-2781
15.779211,-5669,-895,-3277
15.784211,-6391,-1677,-3080
15.789035,-6518,-1986,-1797
15.793890,-6314,-2143,-931
15.798890,-6011,-2343,-765
15.803714,-5489,-2309,-559
15.808569,-5557,-2357,-218
15.813569,-5730,-2623,171
15.818424,-5312,-2763,499
15.823248,-5121,-2734,698
15.828248,-5382,-2814,837
15.833103,-5603,-3077,1176
15.837957,-5582,-3459,1456
15.842957,-5407,-3927,1476
15.847782,-5221,-4414,1508
15.852636,-5005,-4930,1419
15.857636,-4666,-5311,1253
15.862491,-4277,-5709,649
15.867315,-3889,-6377,-363
15.872315,-3198,-6969,-708
15.877170,-2050,-7596,-804
15.881994,-799,-8610,-1538
15.886994,460,-9773,-2561
15.891511,2042,-10867,-3154
15.896732,3572,-11799,-3357
15.901587,4153,-12454,-3986
15.906587,3731,-12592,-4920
15.911441,2506,-12176,-5894
15.916266,980,-11226,-6801
15.921266,-377,-9498,-7009
15.926120,-2416,-7664,-7155
15.930975,-4487,-6387,-7639
15.935975,-5511,-5093,-7419
15.940799,-6327,-3450,-6632
15.945654,-6869,-1797,-5880
15.950654,-6839,-590,-5214
15.955478,-6912,-84,-4898
15.960333,-7176,-81,-4904
15.965333,-7173,-100,-4998
15.970188,-6941,-54,-5050
15.975012,-7241,-188,-5377
15.980012,-7475,517,-6509
15.984867,-6296,2571,-7651
15.989721,-4795,4451,-8160
15.994721,-2789,5831,-9367
15.999546,-31,7436,-11401
16.4400,1605,9564,-12635
16.9400,3238,11809,-13488
16.14224,5442,13216,-14274
16.19079,6674,12784,-13951
16.24079,6875,10030,-13367
16.28934,5976,7225,-13169
16.33758,4347,5845,-12842
16.38758,3028,4310,-12422
16.43613,2130,2362,-11194
16.48468,1401,598,-9390
16.53468,399,-825,-8723
16.58292,-934,-1465,-8660
16.63147,-2027,-1652,-7912
16.68147,-2539,-1774,-6869
16.73001,-2598,-1475,-6044
16.77826,-2579,-645,-5634
16.82826,-2497,398,-5539
16.87680,-2186,1317,-5318
16.92505,-1745,1890,-4937
16.97505,-1325,2147,-4839
16.102359,-1238,2165,-4970
16.107214,-1304,1989,-5043
16.112214,-1229,1840,-5327
16.117038,-1911,1430,-5721
16.121893,-3418,708,-5828
16.126893,-4850,207,-5993
16.131748,-6757,-4,-6414
16.136572,-9905,-142,-5794
16.141572,-12703,-725,-3955
16.146427,-14904,-841,-3084
16.151251,-18397,405,-1324
16.156251,-20798,294,4404
16.161106,-20312,-2036,10341
16.165960,-19357,-4611,13202
16.170960,-17531,-7648,13968
16.175785,-13969,-8866,12527
16.180639,-11692,-7169,8909
16.185639,-11394,-6350,5197
16.190463,-10305,-4637,4106
16.195318,-8525,-590,4067
16.200318,-7666,1314,2196
16.205173,-7664,289,-317
16.209997,-7642,-1713,-1956
16.214997,-7082,-3323,-2000
16.219852,-6034,-3989,-2557
16.224707,-4412,-5059,-4950
16.229707,-2568,-6851,-6843
16.234531,-983,-8362,-7510
16.239386,-243,-9371,-7419
16.244386,-802,-9956,-7016
16.249240,-1856,-10448,-6677
16.254065,-3014,-10326,-5834
16.259065,-4216,-9207,-5575
16.263919,-5398,-9155,-6807
16.268744,-6610,-9262,-7871
16.273744,-7378,-7853,-8437
16.278598,-7982,-6030,-8726
16.283453,-8308,-3363,-9194
16.288453,-7821,-691,-10015
16.293277,-6841,192,-10651
16.298132,-5382,667,-11110
16.303132,-3898,823,-10708
16.307987,-3461,-1199,-10569
16.312811,-4073,-3341,-11710
16.317811,-4746,-3220,-13631
16.322666,-4289,-2143,-15725
16.327520,-2390,-1613,-16049
16.332520,-200,-879,-15811
16.337345,992,508,-17006
16.342199,939,1872,-17973
16.347199,-22,2767,-18006
16.352054,-1199,2685,-17054
16.356878,-1973,1717,-14663
16.361878,-2793,271,-11746
16.366733,-3877,-1315,-9410
16.371557,-4593,-2689,-7694
16.376557,-5002,-3495,-5932
16.381412,-5564,-3688,-4430
16.386267,-5944,-3625,-3398
16.391267,-5625,-3193,-2284
16.396091,-5587,-2900,-2418
16.400946,-6061,-3198,-3098
16.405946,-5618,-3031,-2186
16.410800,-4684,-2438,-1568
16.415625,-4189,-2323,-2095
16.420625,-3755,-2450,-2391
16.425479,-3205,-2547,-2648
16.430304,-2841,-2557,-3047
16.435304,-2789,-2391,-3407
16.440158,-2973,-2182,-3779
16.445013,-3355,-1911,-4059
16.450013,-4084,-1531,-4184
16.454837,-5248,-874,-4125
16.459692,-6805,199,-3913
16.464692,-9021,1664,-3159
16.469547,-10687,3772,-1775
16.474371,-11188,6313,-68
16.479371,-12894,8595,1544
16.484226,-14674,9373,3471
16.489080,-14249,9052,6763
16.494080,-13515,8574,8847
16.498905,-12617,6070,8522
16.503759,-10887,2838,8872
16.508759,-9707,778,10089
16.513614,-9067,-1195,10832
16.518438,-8371,-2072,10525
16.523438,-7750,-1940,8356
16.528293,-7314,-2195,5826
16.533117,-7135,-2409,4329
16.538117,-7364,-2591,2997
16.542972,-7976,-3107,2306
16.547827,-8849,-3652,2533
16.552827,-9964,-4123,2494
16.557651,-10969,-4659,1160
16.562506,-11446,-5446,-1347
16.567506,-11313,-6385,-3373
16.572360,-10664,-6839,-4712
16.577185,-10153,-6851,-6330
16.582185,-9765,-7093,-8275
16.586701,-9099,-7701,-9187
16.591922,-9624,-7771,-7992
16.596439,-11312,-6669,-7516
16.601660,-12472,-5241,-8539
16.606660,-12435,-3216,-8753
16.611515,-11149,-981,-9757
16.616369,-9283,-492,-12665
16.621369,-7262,-847,-15706
16.626224,-5614,-365,-16702
16.631048,-4452,514,-16118
16.636048,-3502,1355,-16115
16.640903,-3297,2399,-15761
16.645758,-3552,3015,-14726
16.650758,-3632,2767,-13901
16.655582,-3857,2180,-12663
16.660437,-4371,1158,-11456
16.665437,-5071,-218,-10074
16.670261,-5982,-1543,-7580
16.675116,-6728,-2473,-4923
16.680116,-6876,-2481,-3264
16.684970,-6450,-2750,-3239
16.689795,-6000,-3900,-3257
16.694795,-6378,-4514,-2859
16.699649,-6719,-3884,-2727
16.704504,-5875,-2886,-2300
16.709504,-4946,-2675,-2415
16.714328,-4584,-2623,-3138
16.719183,-4205,-2113,-3588
16.724183,-3698,-1727,-3913
16.729038,-3334,-1588,-4379
16.733862,-3122,-1347,-4655
16.738862,-3088,-966,-4855
16.743717,-3141,-665,-5023
16.748541,-3113,-529,-4882
16.753541,-3197,-570,-4787
16.758396,-3343,-843,-4843
16.763250,-3443,-1234,-4845
16.768250,-3775,-1579,-4757
16.773105,-4393,-2034,-4655
16.777929,-5227,-2652,-4568
16.782929,-6332,-2881,-4052
16.787784,-7476,-2448,-3322
16.792608,-8624,-1602,-2795
16.797608,-9867,-413,-1736
16.802463,-11030,1103,-158
16.807318,-12160,2888,1165
16.812318,-12981,4986,2428
16.817142,-13256,7088,3862
16.821997,-13478,8520,5226
16.826997,-13558,8952,6552
16.831851,-12804,8054,7616
16.836676,-11449,6015,8018
16.841676,-10081,3765,7834
16.846530,-8812,1869,7386
16.851385,-7912,905,6911
16.856385,-7528,232,6026
16.861209,-7328,-966,5431
16.866064,-7359,-2054,5668
16.871064,-7671,-3118,5417
16.875919,-7909,-4088,4838
16.880743,-8258,-4575,4392
16.885743,-9253,-5005,3578
16.890598,-10503,-5507,2781
16.895422,-11367,-6075,1924
16.900422,-11853,-6893,194
16.905277,-12154,-7648,-1750
16.910131,-12426,-7710,-3068
16.915131,-11888,-7291,-4155
16.919956,-11313,-7148,-5464
16.924810,-12374,-7726,-6727
16.929810,-12849,-8630,-6591
16.934665,-12294,-9226,-6011
16.939489,-12135,-8442,-7048
16.944489,-11603,-7196,-9162
16.949344,-12665,-8694,-11599
16.954168,-13813,-9237,-13503
16.959168,-11378,-5368,-15127
16.964023,-8525,-1313,-18034
16.968878,-6650,1681,-21578
16.973878,-4852,4835,-23944
16.978702,-3820,6856,-24219
16.983557,-3304,7013,-22734
16.988557,-3882,5933,-19993
16.993411,-5573,3956,-16565
16.998236,-7293,1699,-12788
17.3236,-8101,-652,-9001
17.8090,-8683,-2931,-5828
17.12945,-9078,-3182,-1840
17.17945,-6928,-3650,-463
17.22769,-7012,-6089,-2161
17.27624,-9815,-6189,-93
17.32624,-8073,-4636,2317
17.37479,-5828,-4362,1571
17.42303,-5794,-4534,880
17.47303,-4789,-4243,474
17.52158,-3914,-3536,-25
17.56982,-3532,-3086,-674
17.61982,-2947,-2597,-1507
17.66837,-2420,-1661,-2361
17.71692,-2123,-779,-3164
17.76692,-2013,-215,-3718
17.81546,-2004,67,-4105
17.86370,-2009,69,-4279
17.91370,-2116,-184,-4268
17.96225,-2323,-618,-4286
17.101080,-2566,-1102,-4329
17.106080,-2909,-1591,-4329
17.110904,-3477,-2023,-4177
17.115759,-4382,-2181,-4075
17.120759,-5277,-2193,-3925
17.125614,-6087,-2143,-3497
17.130438,-7546,-1620,-2972
17.135438,-9126,-734,-2195
17.140293,-9903,460,-1374
17.145117,-11151,1980,-431
17.150117,-12299,2826,982
17.154972,-12715,4015,2315
17.159826,-13253,5897,3572
17.164826,-12508,6304,4610
17.169651,-11610,6417,5192
17.174505,-11856,6958,6101
17.179505,-11515,6376,6709
17.184360,-10328,5008,6299
17.189184,-8935,3546,5531
17.194184,-8021,2276,4408
17.199039,-7584,1583,3406
17.203863,-7294,953,2796
17.208863,-7551,-527,2594
17.213718,-7835,-1931,4051
17.218573,-8017,-2536,5610
17.223573,-8198,-3704,5858
17.228397,-8253,-5284,5954
17.233252,-8292,-6834,5926
17.238252,-8175,-8212,5772
17.243106,-8774,-8839,5397
17.247931,-9551,-9937,4885
17.252931,-9469,-11255,4183
17.257785,-9189,-11958,3030
17.262640,-8917,-12549,1444
17.267640,-8601,-12454,-652
17.272495,-8423,-11344,-2664
17.277319,-8201,-10258,-4205
17.282319,-7398,-9955,-5228
17.287174,-6684,-10192,-5980
17.291998,-6807,-10435,-6703
17.296998,-6534,-9814,-7314
17.301515,-5646,-8732,-8082
17.306735,-5143,-8442,-9005
17.311590,-4757,-8717,-9721
17.316590,-4432,-8891,-10187
17.321445,-4314,-9085,-10330
17.326269,-4437,-9428,-10696
17.331269,-5480,-8583,-11733
17.336124,-6125,-5791,-12383
17.340979,-4855,-2536,-12494
17.345979,-3391,908,-13067
17.350803,-2625,4176,-14909
17.355658,-2156,6413,-15881
17.360658,-3138,9029,-13449
17.365512,-4250,10175,-10897
17.370337,-3766,8638,-10053
17.375337,-3568,7384,-9162
17.380191,-3641,5981,-8392
17.385046,-2975,3769,-8494
17.390046,-2950,1451,-8226
17.394901,-3545,-1488,-6628
17.399725,-3768,-3863,-4989
17.404725,-3663,-4845,-4155
17.409580,-3327,-5559,-4030
17.414404,-3180,-6114,-3730
17.419404,-3222,-6139,-3132
17.424259,-3136,-5746,-2847
17.429113,-2854,-5016,-2681
17.434113,-2522,-4100,-2718
17.438938,-2491,-3298,-3129
17.443792,-2523,-2679,-3518
17.448792,-2548,-2188,-3757
17.453647,-2807,-1850,-3829
17.458471,-3050,-1624,-3802
17.463471,-3239,-1515,-3918
17.468326,-3754,-1504,-3988
17.473181,-4691,-1516,-3723
17.478181,-5646,-1359,-3313
17.483005,-6650,-1100,-2914
17.487860,-7898,-845,-2016
17.492860,-8973,-386,-745
17.497714,-9915,357,435
17.502539,-10753,1483,1696
17.507539,-11290,2662,2769
17.512393,-11753,3294,3519
17.517248,-11974,3506,4181
17.522248,-11471,3431,4445
17.527072,-10387,2797,4137
17.531927,-9542,1644,3651
17.536927,-8874,344,3369
17.541782,-7976,-788,3021
17.546606,-7385,-1454,2537
17.551606,-7096,-1684,2349
17.556461,-6894,-1836,2133
17.561316,-6544,-2777,2169
17.566316,-6019,-4732,2696
17.571140,-6128,-5975,3506
17.575995,-6468,-6462,5329
17.580995,-6648,-7325,6893
17.585481,-6993,-8128,6693
17.590732,-6557,-9199,5376
17.595587,-5123,-10315,3876
17.600587,-4086,-10489,3028
17.605411,-3786,-10439,2408
17.610266,-3609,-10671,1619
17.615266,-3207,-10876,1085
17.620120,-2586,-11101,453
17.624945,-2038,-11142,-359
17.629945,-1745,-10828,-925
17.634799,-1570,-10278,-1140
17.639654,-1359,-9717,-1109
17.644654,-1265,-9473,-1125
17.649478,-1290,-9360,-1250
17.654333,-1195,-9078,-1459
17.659333,-1050,-8737,-1873
17.664188,-965,-8487,-2323
17.669012,-895,-8321,-2593
17.674012,-790,-8182,-2834
17.678867,-611,-8071,-3102
17.683691,-438,-7794,-3343
17.688691,-379,-7301,-3630
17.693546,-384,-6825,-3889
17.698401,-425,-6275,-4095
17.703401,-554,-5655,-4093
17.708225,-804,-4977,-4077
17.713079,-1043,-4191,-4371
17.718079,-829,-3757,-4450
17.722934,-445,-3511,-4545
17.727758,-440,-3041,-4804
17.732758,-538,-2570,-4600
17.737613,-595,-2093,-4238
17.742468,-836,-1675,-4043
17.747468,-983,-895,-3748
17.752292,-927,951,-3497
17.757147,-1231,2981,-3639
17.762147,-1413,4340,-3916
17.767002,-806,5265,-4437
17.771826,-234,5683,-4727
17.776826,-288,5792,-4227
17.781681,-515,5822,-3704
17.786505,-806,5638,-3116
17.791505,-1290,5452,-2332
17.796359,-1740,5238,-1774
17.801214,-2159,4808,-1215
17.806214,-2479,4306,-584
17.811038,-2548,3720,-6
17.815893,-2788,3094,387
17.820893,-3218,2471,462
17.825748,-3432,1628,776
17.830572,-3388,674,1523
17.835572,-3580,64,2171
17.840427,-3297,-672,2522
17.845282,-1634,-1820,2701
17.850282,-852,-2166,2963
17.855106,-1575,-1824,3247
17.859961,-1786,-1511,3101
17.864961,-1761,-1009,2422
17.869815,-2284,-279,1964
17.874640,-2657,289,2031
17.879640,-2115,5,1853
17.884494,-991,-677,1487
17.889349,-258,-1040,1510
17.894349,-163,-1109,1180
17.899173,-349,-872,19
17.904028,-338,-684,-841
17.909028,-24,-781,-1059
17.913883,116,-893,-1431
17.918707,53,-1040,-2038
17.923707,183,-1257,-2761
17.928562,489,-1463,-3547
17.933416,853,-1688,-3902
17.938416,1212,-1745,-3946
17.943241,1424,-1507,-4202
17.948095,1453,-1457,-4366
17.953095,1694,-1359,-4721
17.957920,1824,-1063,-5573
17.962774,1028,-1624,-5893
17.967774,710,-1827,-5652
17.972629,1599,-509,-5411
17.977453,2185,730,-5286
17.982453,2164,1157,-5355
17.987308,2051,1364,-5359
17.992163,1828,1799,-5525
17.997163,1390,1831,-5498
18.1987,1069,1290,-4896
18.6842,1092,1085,-4559
18.11842,1178,901,-4577
18.16696,1105,344,-4566
18.21182,848,174,-4443
18.26434,624,516,-4104
18.31434,714,1028,-3618
18.36258,1017,1565,-2943
18.41113,1153,1464,-2366
18.46113,910,964,-2352
18.50968,339,1058,-2589
18.55792,-456,1428,-2589
18.60792,-691,1224,-2175
18.65647,-143,923,-1940
18.70501,126,957,-2016
18.75501,-34,892,-1795
18.80326,-172,748,-1502
18.85180,-199,587,-1466
18.90180,-95,408,-1570
18.95035,19,303,-1722
18.99859,151,246,-1856
18.104859,269,266,-1922
18.109714,264,348,-2013
18.114569,262,426,-2129
18.119569,316,419,-2188
18.124393,339,457,-2165
18.129248,296,407,-2115
18.134248,349,124,-2029
18.139072,467,42,-1859
18.143927,274,91,-1713
18.148927,7,117,-1645
18.153781,-2,246,-1729
18.158606,74,296,-1666
18.163606,108,362,-1720
18.168460,110,432,-2048
18.173315,433,182,-995
18.178315,728,14,-150
18.183170,307,324,-1375
18.187994,-243,742,-2250
18.192994,-490,914,-2400
18.197849,-488,815,-2509
18.202673,-277,699,-2259
18.207673,-149,608,-2107
18.212528,-40,426,-2116
18.217382,37,298,-2107
18.222382,-54,333,-2086
18.227207,-125,378,-2052
18.232061,-131,339,-2088
18.237061,-199,217,-2009
18.241916,-263,201,-2168
18.246740,-34,214,-2061
18.251740,-20,-102,-2127
18.256595,-422,874,-3205
18.261450,-84,1617,-2550
18.266450,341,151,-1404
18.271274,16,-129,-1329
18.276129,82,19,-2477
18.281129,346,-452,-4412
18.285984,157,-54,-3700
18.290808,0,255,-2268
18.295808,-50,248,-1643
18.300662,-81,119,-1495
18.305517,-95,-4,-1927
18.310517,-97,-104,-1984
18.315341,-50,-250,-2072
18.320196,-15,-288,-1954
18.325196,26,-158,-2052
18.330051,-68,-38,-2415
18.334875,-190,-25,-2079
18.339875,-167,33,-1840
18.344730,-188,-68,-2061
18.349585,-247,-83,-2188
18.354585,-236,51,-2034
18.359409,-158,3,-1932
18.364264,-100,-29,-1972
18.369264,-92,-2,-1915
18.374118,-108,-17,-1925
18.378943,-143,-59,-1981
18.383943,-90,-86,-1950
18.388797,12,-90,-1879
18.393652,5,-77,-1940
18.398652,-29,-43,-2041
18.403476,-45,-18,-1979
18.408331,-65,-31,-1927
18.413331,-40,-27,-1959
18.418186,-20,-2,-1956
18.423010,-59,-25,-1975
18.428010,-68,-34,-1982
18.432865,-36,-25,-1925
18.437719,-43,-40,-1932
18.442719,-68,-29,-1940
18.447544,-54,-43,-1911
18.452398,-20,-56,-1972
18.457398,-25,-24,-2007
18.462223,-15,-25,-1965
18.467077,7,-31,-1927
18.472077,-11,-9,-1915
18.476932,-31,-17,-1954
18.481756,-40,-34,-1957
18.486756,-33,-33,-1936
18.491611,-36,-42,-1959
18.496466,-15,-34,-1948
18.501466,7,-13,-1934
18.506290,-40,-24,-1938
18.511145,-38,-34,-1918
18.516145,-4,-27,-1907
18.520999,-24,-34,-1918
18.525824,-38,-38,-1940
18.530824,-22,-27,-1977
18.535678,-11,-9,-1981
18.540533,-70,-20,-1934
18.545533,-92,-38,-1907
18.550357,-25,-17,-1893
18.555212,-38,-18,-1895
18.560212,-50,-40,-1948
18.565067,-4,-36,-1990
18.569891,-2,-25,-1968
18.574891,-31,-20,-1940
18.579746,-36,-22,-1940
18.584232,-34,-17,-1947
18.589483,-50,-18,-1954
18.594483,-50,-50,-1970
18.599338,-31,-36,-2020
18.604162,-36,-15,-2009
18.609162,-50,-49,-1934
18.614017,-34,-45,-1932
18.618872,-33,-17,-1941
18.623872,-45,-18,-1954
18.628696,-38,-20,-1957
18.633551,-13,-20,-1884
18.638551,-15,-22,-1891
18.643375,-65,-31,-1973
18.648230,-61,-43,-1950
18.653230,-29,-25,-1931
18.658084,-38,-22,-1961
18.662909,-54,-34,-1909
18.667909,-43,-27,-1893
18.672763,-17,-31,-1940
18.677618,-18,-33,-1922
18.682618,-38,-13,-1904
18.687442,-33,-27,-1936
18.692297,3,-25,-1961
18.697297,1,-2,-1968
18.702152,-43,-67,-1977
18.706976,-36,-111,-1936
18.711976,-42,-61,-1906
18.716831,-81,-18,-1923
18.721655,-56,-22,-1929
18.726655,-25,-27,-1934
18.731510,-31,-18,-1936
18.736364,-15,-25,-1950
18.741364,-17,-40,-1975
18.746189,-52,-27,-1986
18.751043,-40,-22,-1981
18.756043,0,-33,-1956
18.760898,46,-43,-1943
18.765722,78,-97,-1927
18.770722,-6,-133,-1925
18.775577,-108,-81,-1968
18.780432,-83,-33,-1963
18.785432,-63,-27,-1920
18.790256,-113,-20,-1931
18.795111,-108,1,-1936
18.800111,-52,23,-1922
18.804935,-18,19,-1943
18.809790,-13,-2,-1963
18.814790,-2,-20,-1966
18.819644,7,-27,-1973
18.824469,8,0,-1941
18.829469,26,8,-1948
18.833985,1,-15,-1972
18.839206,-70,-33,-1954
18.844061,-90,-72,-1977
18.849061,-67,-68,-1934
18.853916,-49,-38,-1870
18.858740,-11,-59,-1922
18.863740,1,-52,-1954
18.868595,-25,-17,-1948
18.873449,-29,-4,-1965
18.878449,-36,-24,-1995
18.883274,-56,-52,-2002
18.888128,-72,-29,-1947
18.893128,-43,-22,-1932
18.897983,16,-52,-1957
18.902807,1,-40,-1948
18.907807,-36,-18,-1943
18.912662,-36,-6,-1948
18.917517,-40,1,-1943
18.922517,-70,-11,-1947
18.927341,-74,-20,-1945
18.932196,-38,-11,-1947
18.937196,24,0,-1948
18.942020,-18,-36,-1907
18.946875,-179,-52,-1915
18.951875,-125,1,-1961
18.956729,26,14,-1972
18.961554,-2,0,-1940
18.966554,-40,-15,-1911
18.971408,-33,-50,-1940
18.976263,-42,-49,-1943
18.981263,-47,-43,-1956
18.986087,-65,-54,-1991
18.990942,-40,-45,-1965
18.995942,-9,-38,-1941
19.797,-52,-25,-1925
19.5621,-86,-31,-1947
19.10621,-79,-49,-1981
19.15476,-52,-31,-1945
19.20330,-50,-40,-1950
19.25330,-65,-54,-1950
19.30155,-40,-43,-1922
19.35009,-42,-45,-1950
19.40009,-31,-20,-1966
19.44834,5,-4,-1968
19.49688,-11,-27,-1950
19.54688,-34,-40,-1938
19.59543,-59,-24,-1965
19.64367,-25,12,-1957
19.69367,1,-6,-1947
19.74222,-54,-43,-1947
19.79077,-22,-38,-1982
19.84077,5,-36,-1981
19.88901,-58,-29,-1923
19.93756,-45,-61,-1970
19.98756,-49,-68,-1984
19.103610,-95,-9,-1940
19.108435,-67,-45,-1963
19.113435,-36,-74,-1961
19.118289,-24,-9,-1957
19.123144,-15,-2,-1982
19.128144,-43,-27,-1959
19.132968,-63,-25,-1922
19.137823,-56,-47,-1913
19.142823,-52,-40,-1902
19.147678,-15,-17,-1925
19.152502,-22,-29,-1968
19.157502,-59,-27,-1947
19.162357,-33,-36,-1940
19.167181,-27,-38,-1959
19.172181,-33,-17,-1947
19.177036,-18,-38,-1945
19.181891,-27,-54,-1990
19.186891,-29,-36,-1984
19.191715,-25,-33,-1904
19.196569,-47,-42,-1911
19.201569,-34,-36,-1950
19.206424,-6,-25,-1943
19.211248,-36,-27,-1929
19.216248,-56,-47,-1922
19.221103,-27,-54,-1940
19.225958,-22,-33,-1948
19.230958,-22,-25,-1947
19.235782,-22,-27,-1959
19.240637,-18,-15,-1936
19.245637,-25,-11,-1915
19.250461,-59,-13,-1966
19.255316,-56,-13,-1961
19.260316,-31,-18,-1929
19.265171,-11,-20,-1959
19.269995,-8,-24,-1932
19.274995,-29,-25,-1900
19.279849,-15,-11,-1931
19.284674,-33,-22,-1936
19.289674,-50,-25,-1915
19.294528,-11,-18,-1907
19.299383,-6,-38,-1952
19.304383,-38,-34,-1973
19.309207,-49,-36,-1923
19.314062,-31,-47,-1918
19.319062,-25,-38,-1938
19.323886,-33,-38,-1922
19.328741,-56,-38,-1954
19.333741,-68,-38,-1981
19.338596,-42,-43,-1945
19.343420,-38,-38,-1943
19.348420,-59,-25,-1963
19.353275,-38,-4,-1954
19.358099,-17,-33,-1965
19.363099,12,-40,-1982
19.367954,39,37,-1975
19.372808,-42,37,-1929
19.377808,-68,-15,-1916
19.382633,-29,-50,-1965
19.387487,-31,-49,-1945
19.392487,-11,-25,-1904
19.397342,-2,-42,-1923
19.402166,-56,-43,-1970
19.407166,-86,-31,-1972
19.412021,-67,-36,-1936
19.416845,-36,-47,-1959
19.421845,-25,-47,-1954
19.426700,-70,-45,-1913
19.431555,-72,-52,-1938
19.436555,-27,-47,-1959
19.441379,-34,-34,-1936
19.446234,-33,-38,-1940
19.451234,-25,-49,-1938
19.456088,-54,-36,-1886
19.460913,-56,-24,-1923
19.465913,-22,-29,-1972
19.470767,-9,-18,-1948
19.475592,-38,-6,-1984
19.480592,-68,-13,-1977
19.485446,-54,-18,-1904
19.490301,-40,-38,-1936
19.495301,-67,-42,-1965
19.500125,-75,-29,-1934
19.504980,-43,-34,-1945
19.509980,-40,-25,-1938
19.514804,-31,-15,-1904
19.519659,-11,-17,-1920
19.524659,-49,-13,-1954
19.529514,-77,-27,-1936
19.534338,-43,-22,-1931
19.539338,-36,-6,-1968
19.544193,-24,-13,-1963
19.549047,-13,-18,-1925
19.554047,-25,-27,-1906
19.558872,12,-25,-1907
19.563726,14,-24,-1940
19.568726,-20,-38,-1941
19.573551,-29,-42,-1913
19.578405,-40,-25,-1936
19.583405,-33,-15,-1947
19.587891,-8,-29,-1943
19.593143,-20,-33,-1941
19.597998,-40,-11,-1927
19.602998,-24,-8,-1950
19.607822,-15,-25,-1945
19.612677,-17,-27,-1922
19.617677,-18,-11,-1947
19.622531,-18,3,-1938
19.627356,-4,-4,-1923
19.632356,-40,-47,-1956
19.637210,-92,-65,-1943
19.642035,-56,-27,-1940
19.647035,-20,-17,-1963
19.651551,-36,-31,-1936
19.656434,-65,-33,-1941
19.661685,-61,-29,-1968
19.666510,-13,-18,-1936
19.671510,-50,-22,-1918
19.676364,-70,-25,-1934
19.681219,-18,-31,-1981
19.686219,-54,-22,-1956
19.691043,-61,-24,-1890
19.695898,-27,-88,-1907
19.700898,-61,-81,-1904
19.705753,-77,-25,-1881
19.710577,-77,-18,-1925
19.715577,-54,-15,-1956
19.720432,-24,-27,-1934
19.725256,-43,-18,-1948
19.730256,-40,-8,-1972
19.735111,-24,-33,-1945
19.739965,-52,-47,-1968
19.744965,-67,-54,-1981
19.749790,-38,-47,-1918
19.754644,-33,-29,-1916
19.759644,-34,-24,-1934
19.764469,-33,-36,-1907
19.769323,-34,-47,-1913
19.774323,-27,-40,-1957
19.779178,-40,-43,-1972
19.784002,-52,-38,-1954
19.789002,-47,-36,-1965
19.793857,-27,-36,-1968
19.798712,-22,-9,-1923
19.803712,-22,0,-1923
19.808536,-13,-27,-1956
19.813391,-8,-27,-1940
19.818391,-9,-15,-1936
19.823245,-38,-31,-1961
19.828070,-58,-34,-1966
19.833070,-31,-36,-1961
19.837924,-8,-29,-1954
19.842749,-17,-8,-1968
19.847749,-33,-17,-1957
19.852603,-65,-33,-1918
19.857458,-58,-17,-1923
19.862458,-20,-18,-1954
19.867282,-29,-36,-1970
19.872137,-59,-31,-1936
19.877137,-59,-27,-1927
19.881961,-59,-25,-1945
19.886478,-58,-20,-1952
19.891361,-33,-27,-1968
19.896274,-29,-20,-1947
19.901157,-45,-22,-1948
19.906070,-59,-40,-1909
19.910953,-20,1,-2007
19.915836,0,-42,-1975
19.920749,-63,-40,-1765
19.925632,85,169,-2520
19.930545,207,98,-2739
19.935428,8,-54,-1784
19.940341,-77,-4,-1795
19.945224,-56,-4,-2073
19.950107,-50,-6,-1925
19.955020,-22,-22,-1927
19.959903,-33,-40,-1890
19.964817,-2,-34,-1875
19.969699,8,-34,-1957
19.974582,-20,-11,-1966
19.979495,-6,3,-1948
19.984378,0,-2,-1934
19.989292,-15,7,-1918
19.994174,-20,1,-1927
19.999088,-31,-31,-1927
20.3971,-38,-45,-1945
20.8853,-38,-24,-1956
20.13767,-24,-13,-1940
20.18650,-11,-24,-1956
20.23563,-18,-22,-1952
20.28446,-11,-29,-1911
20.33359,0,-42,-1888
20.38242,-50,-25,-1897
20.43125,-79,-4,-1931
20.48038,-29,7,-1948
20.52921,-33,-17,-1938
20.57834,-45,-36,-1931
20.62717,-29,-29,-1940
20.67600,-36,-33,-1950
20.72513,-27,-15,-1936
20.77396,-56,30,-1915
20.82309,-59,26,-1916
20.87192,1,-2,-1916
20.92075,-20,-20,-1932
20.96988,-63,-15,-1956
20.101871,-29,-15,-1968
20.106784,-29,-29,-1986
20.111667,-90,-13,-1940
20.116580,-52,-20,-1882
20.121463,-9,-31,-1940
20.126346,-45,-13,-1945
20.131259,-24,-33,-1886
20.136142,-11,-25,-1904
20.141056,-38,-4,-1915
20.145938,-34,0,-1927
20.150852,-18,-6,-1970
20.155734,-29,-40,-1940
20.160617,-63,-40,-1911
20.165531,-40,-29,-1956
20.170413,14,-36,-1956
20.175327,-22,-15,-1925
20.180210,-75,-11,-1918
20.185092,-29,-50,-1929
20.190006,0,-42,-1952
20.194889,-24,-29,-1936
20.199802,-6,-27,-1932
20.204685,-4,-6,-1943
20.209598,-25,-17,-1918
20.214481,-36,-13,-1963
20.219394,-36,-11,-1986
20.224277,-20,-34,-1941
20.229160,-13,-33,-1957
20.234073,-31,-15,-1952
20.238956,-38,-13,-1923
20.243869,-25,-18,-1961
20.248752,-34,-4,-1982
20.253665,-49,-13,-1938
20.258548,-18,-36,-1945
20.263431,3,-29,-1984
20.268344,-8,-38,-1950
20.273227,1,-50,-1906
20.278141,-2,-24,-1923
20.283023,-40,12,-1929
20.287937,-42,-11,-1922
20.292819,-36,-40,-1950
20.297702,-45,-27,-1922
20.302616,-27,-24,-1907
20.307498,-22,-15,-1950
20.312412,-27,-22,-1970
20.317295,-17,-29,-1972
20.322208,-27,-15,-1968
20.327091,-58,-36,-1975
20.331974,-58,-56,-1986
20.336887,-20,-29,-1990
20.341770,-43,1,-1947
20.346683,-68,-15,-1925
20.351566,-15,-34,-1973
20.356479,-43,-6,-1972
20.361362,-59,5,-1950
20.366275,12,-15,-1961
20.371158,-11,-22,-1922
20.376041,-59,-13,-1902
20.380954,-25,5,-1950
20.385837,-6,-6,-1957
20.390750,-25,-17,-1927
20.395633,-40,-17,-1925
20.400547,-47,-22,-1936
20.405429,-34,-20,-1929
20.410312,-25,-33,-1945
20.415225,-17,-34,-1943
20.420108,3,-24,-1948
20.425022,-29,-27,-1927
20.429904,-58,-24,-1923
20.434787,-22,-38,-1956
20.439701,-42,-24,-1911
20.444583,-54,16,-1968
; 20.444 stopping logging: shutdown: switched off
