;Title, http://www.gcdataconcepts.com, x16-1d, ADXL345
;Version, 1877, Build date, Jan  8 2020,  SN:CCDC4016ECDDBE3
;Start_time, 2022-11-15, 19:26:38.405
;Uptime, 4,sec,  Vbat, 1472, mv, EOL, 1100, mv
;SampleRate, 200,Hz
;Deadband, 0, counts
;DeadbandTimeout, 0.000,sec
;Time, Ax, Ay, Az
0.76844,-431,-2889,892
0.81668,-258,-2098,830
0.86492,-349,-2132,-386
0.91492,-368,-2134,-424
0.96347,-345,-1799,-592
0.101171,-308,-1766,-922
0.106171,-172,-1804,-536
0.110995,-102,-1811,-356
0.115819,114,-2059,85
0.120819,333,-2252,483
0.125674,221,-2188,133
0.130498,80,-2363,130
0.135498,101,-2552,558
0.140323,112,-2352,510
0.145147,71,-2118,219
0.150147,60,-2004,144
0.154971,103,-1947,219
0.159826,155,-2023,287
0.164826,198,-2047,326
0.169650,230,-2022,462
0.174474,235,-2056,603
0.179474,278,-2016,617
0.184298,324,-1948,607
0.189153,269,-1920,583
0.194153,205,-1806,466
0.198977,157,-1659,316
0.203802,135,-1661,217
0.208802,224,-1768,223
0.213626,324,-1913,355
0.218450,398,-2104,537
0.223450,451,-2290,664
0.228305,453,-2304,669
0.233129,433,-2168,605
0.238129,364,-2102,514
0.242953,264,-2090,408
0.247777,192,-2057,401
0.252777,144,-2059,442
0.257602,96,-2038,444
0.262456,39,-1968,458
0.267456,16,-1904,474
0.272281,-6,-1854,478
0.277105,-27,-1857,451
0.282105,-15,-1936,389
0.286929,-45,-2072,330
0.291753,-125,-2223,287
0.296753,-200,-2318,260
0.301608,-279,-2347,267
0.306432,-327,-2322,316
0.311432,-333,-2241,355
0.316256,-308,-2143,357
0.321081,-274,-2063,367
0.326081,-292,-2007,362
0.330905,-309,-1965,324
0.335729,-283,-1890,299
0.340729,-258,-1836,260
0.345584,-236,-1873,192
0.350408,-225,-1938,128
0.355408,-215,-2013,137
0.360232,-199,-2097,203
0.365056,-209,-2157,255
0.370056,-197,-2166,269
0.374881,-147,-2148,266
0.379735,-113,-2095,285
0.384735,-109,-2065,298
0.389560,-131,-2100,289
0.394384,-136,-2084,307
0.399384,-140,-2047,319
0.404208,-150,-2034,301
0.409032,-127,-2002,294
0.414032,-93,-1945,316
0.418887,-68,-1931,321
0.423711,-49,-1988,308
0.428711,-45,-2002,301
0.433535,-42,-2000,273
0.438360,-13,-2015,253
0.443360,5,-1966,260
0.448184,-29,-1934,223
0.453039,-72,-1965,160
0.458039,-65,-2018,158
0.462863,-75,-2079,214
0.467687,-118,-2093,255
0.472687,-145,-2097,257
0.477511,-147,-2113,224
0.482336,-102,-2113,194
0.487336,-81,-2161,203
0.492190,-111,-2223,232
0.497014,-100,-2229,285
0.502014,-86,-2197,324
0.506839,-124,-2141,339
0.511663,-163,-2072,382
0.516663,-125,-1986,416
0.521487,-72,-1923,442
0.526342,-100,-1913,444
0.531342,-122,-1906,419
0.536166,-95,-1920,380
0.540990,-63,-1957,316
0.545990,-20,-1998,319
0.550815,-8,-2043,357
0.555639,-63,-2047,366
0.560639,-100,-2023,362
0.565463,-99,-1998,355
0.570318,-131,-1991,369
0.575318,-142,-2045,387
0.580142,-131,-2090,433
0.584966,-125,-2070,474
0.589966,-113,-2045,469
0.594455,-117,-2041,451
0.599276,-138,-2065,449
0.604528,-175,-2066,442
0.609528,-179,-2029,448
0.614352,-165,-2007,460
0.619176,-161,-2002,460
0.624176,-159,-2025,473
0.629001,-163,-2057,444
0.633825,-145,-2091,410
0.638825,-134,-2109,446
0.643680,-167,-2075,482
0.648504,-188,-2050,514
0.653504,-181,-2081,576
0.658328,-208,-2116,651
0.663152,-240,-2116,705
0.668152,-213,-2091,705
0.672976,-202,-2009,717
0.677831,-222,-1907,689
0.682831,-209,-1884,635
0.687655,-184,-1888,671
0.692480,-140,-1879,728
0.697480,-104,-1877,757
0.702304,-95,-1881,758
0.707128,-100,-1923,773
0.712128,-90,-1943,805
0.716983,-58,-1907,810
0.721807,-59,-1906,808
0.726807,-59,-1900,819
0.731631,-63,-1840,832
0.736455,-67,-1793,849
0.741455,-63,-1815,803
0.746280,-86,-1841,755
0.751104,-81,-1815,810
0.756104,-74,-1790,860
0.760959,-111,-1804,874
0.765783,-138,-1836,864
0.770783,-136,-1900,823
0.775607,-138,-1956,837
0.780431,-149,-1931,873
0.785431,-115,-1916,810
0.790255,-72,-1898,753
0.795110,-95,-1877,769
0.800110,-104,-1859,776
0.804934,-59,-1822,783
0.809759,-68,-1857,790
0.814759,-86,-1902,815
0.819583,-59,-1931,849
0.824407,-54,-1984,826
0.829407,-43,-1988,819
0.834262,-17,-1950,840
0.838748,0,-1916,826
0.843631,1,-1875,801
0.848514,-9,-1843,803
0.853734,-9,-1854,832
0.858734,0,-1854,842
0.863559,12,-1859,814
0.868383,42,-1923,805
0.873383,58,-1961,812
0.878238,64,-1954,826
0.883062,51,-1934,832
0.888062,51,-1961,764
0.892886,94,-1954,782
0.897710,30,-1861,871
0.902710,-31,-1920,837
0.907535,12,-2025,807
0.912389,5,-1990,835
0.917389,1,-1952,849
0.922213,26,-1929,853
0.927038,14,-1906,810
0.932038,19,-1882,796
0.936862,39,-1848,871
0.941686,26,-1881,932
0.946686,30,-1897,907
0.951541,19,-1824,944
0.956365,-43,-1820,1069
0.961365,-79,-1827,1060
0.966189,-38,-1756,985
0.971014,7,-1725,1073
0.976014,14,-1768,1155
0.980838,-4,-1841,1119
0.985692,0,-1850,1133
0.990692,39,-1813,1162
0.995517,44,-1784,1158
1.341,7,-1766,1139
1.5341,0,-1731,1123
1.10165,33,-1679,1124
1.14989,41,-1654,1132
1.19989,33,-1656,1173
1.24814,30,-1661,1198
1.29668,30,-1634,1185
1.34668,26,-1604,1201
1.39493,3,-1586,1276
1.44317,32,-1574,1339
1.49317,33,-1579,1317
1.54141,-15,-1557,1289
1.58965,55,-1552,1326
1.63965,117,-1606,1367
1.68820,80,-1629,1269
1.73644,80,-1584,1040
1.78644,80,-1572,1028
1.83468,66,-1634,1344
1.88293,78,-1634,1480
1.93293,44,-1541,1176
1.98117,8,-1513,992
1.102941,19,-1572,1214
1.107941,-24,-1616,1398
1.112796,-93,-1645,1321
1.117620,-168,-1711,1237
1.122620,-225,-1741,1381
1.127444,-222,-1697,1560
1.132268,-258,-1643,1526
1.137268,-304,-1595,1480
1.142093,-297,-1604,1533
1.146917,-272,-1641,1562
1.151917,-263,-1650,1530
1.156772,-240,-1652,1446
1.161596,-152,-1624,1348
1.166596,-77,-1632,1276
1.171420,-43,-1649,1224
1.176244,7,-1604,1192
1.181244,37,-1590,1182
1.186068,41,-1593,1171
1.190893,58,-1599,1183
1.195893,74,-1611,1342
1.200747,60,-1674,1510
1.205572,-25,-1816,1542
1.210572,-58,-1843,1483
1.215396,-88,-1752,1510
1.220220,-224,-1775,1499
1.225220,-13,-1713,1481
1.230044,-288,-1590,1812
1.234899,-145,-1516,655
1.239899,2053,-1384,1369
1.244723,2031,-1416,6593
1.249547,112,-552,6283
1.254547,105,435,-2329
1.259372,-440,562,-5170
1.264196,-1195,1205,2787
1.269196,-908,1274,5988
1.274020,-872,649,1358
1.278875,-454,699,-409
1.283875,-127,582,69
1.288699,-920,133,1183
1.293523,-1211,171,3179
1.298523,-509,180,2615
1.303347,-540,683,-1677
1.308172,-897,1323,-3304
1.313172,-874,1182,594
1.318026,-883,1410,3333
1.322851,-747,1458,2910
1.327851,-620,1287,-333
1.332675,-172,1847,-2913
1.337499,487,2310,-463
1.342499,676,2174,1355
1.347323,705,1567,346
1.352148,589,985,-267
1.357148,419,837,-625
1.362002,512,799,-567
1.366826,646,1087,-254
1.371826,612,1478,-859
1.376651,123,1721,-1511
1.381475,-554,2346,-1550
1.386475,-652,2688,-1615
1.391299,-445,2167,-1425
1.396123,-420,1448,-1377
1.401123,-399,1262,-1729
1.405978,-372,1467,-1695
1.410802,-165,1465,-1875
1.415802,280,1353,-2152
1.420627,269,1178,-2082
1.425451,1,935,-1947
1.430451,101,965,-2438
1.435275,208,1078,-2831
1.440130,30,794,-2243
1.445130,-229,742,-2764
1.449954,-252,1001,-3597
1.454778,-284,664,-3000
1.459778,-304,264,-2589
1.464602,126,151,-3388
1.469427,294,267,-3022
1.474427,32,226,-2475
1.479251,-43,-308,-3848
1.484106,-49,-252,-3488
1.489106,-124,-329,-2956
1.493930,14,-633,-3307
1.498754,164,-486,-2786
1.503754,-58,-884,-3063
1.508578,-99,-1243,-3113
1.513402,94,-1234,-2814
1.518402,133,-1241,-2672
1.523227,128,-1340,-2716
1.528081,62,-1400,-2672
1.533081,-36,-1390,-2341
1.537906,-172,-1788,-2838
1.542730,-209,-1897,-2448
1.547730,-184,-1715,-1754
1.552554,-224,-1809,-2223
1.557378,-181,-1822,-2186
1.562378,-38,-1852,-1586
1.567202,96,-2002,-1543
1.572057,157,-2038,-1597
1.577057,294,-1968,-1034
1.581881,248,-1956,-991
1.586706,-102,-2072,-1281
1.591706,-283,-2109,-1177
1.596391,-265,-1916,-1033
1.601060,-172,-1854,-629
1.606281,-68,-2004,-377
1.611105,19,-2063,-511
1.616105,71,-2181,-420
1.620929,116,-2329,-99
1.625784,408,-2095,160
1.630784,453,-1943,96
1.635608,196,-2052,-124
1.640432,55,-1884,135
1.645432,-300,-1856,508
1.650257,-590,-1975,444
1.655081,-509,-1807,473
1.660081,-274,-1656,596
1.664567,-222,-1641,582
1.669788,-179,-1561,680
1.674643,144,-1395,740
1.679643,280,-1329,746
1.684467,339,-1206,737
1.689291,328,-991,807
1.694291,35,-1070,1169
1.699115,-17,-1122,1265
1.703940,10,-924,1196
1.708940,-74,-931,1456
1.713764,-140,-913,1324
1.718618,-384,-795,1205
1.723618,-399,-811,1637
1.728443,-209,-706,1610
1.733267,-302,-517,1110
1.738267,-308,-322,1065
1.743091,-92,-175,1358
1.747915,-42,-136,1289
1.752915,-34,-27,1240
1.757740,32,49,1455
1.762564,46,19,1490
1.767564,169,53,1440
1.772419,196,167,1287
1.777243,108,314,1123
1.782243,-6,449,1351
1.787067,-331,537,1637
1.791891,-361,551,1369
1.796891,-95,628,851
1.801715,96,742,685
1.806540,378,755,928
1.811540,374,828,1301
1.816394,101,944,1169
1.821219,-29,1060,723
1.826219,-150,1235,632
1.831043,-227,1355,533
1.835867,-302,1435,507
1.840867,-497,1587,933
1.845691,-577,1685,1101
1.850515,-333,1530,485
1.855515,42,1260,-147
1.860370,239,1337,-58
1.865194,278,1544,287
1.870194,305,1592,412
1.875019,210,1710,266
1.879843,-90,1696,-215
1.884843,-259,1621,-627
1.889667,-249,1746,-647
1.894491,-227,1867,-349
1.899491,-224,1869,-408
1.904346,-313,1835,-959
1.909170,-324,1705,-881
1.914170,-143,1560,-747
1.918994,60,1860,-1290
1.923819,169,1910,-1334
1.928819,116,1537,-1109
1.933643,-274,2097,-1911
1.938467,-468,2701,-2584
1.943467,-309,1955,-1784
1.948322,-29,558,-320
1.953146,607,503,-1638
1.958146,790,1619,-4205
1.962970,407,1808,-2582
1.967795,114,1235,-1206
1.972795,-120,774,-1772
1.977619,-40,-325,166
1.982443,119,-849,-390
1.987443,-186,1276,-5239
1.992298,-181,1519,-3245
1.997122,130,-61,2081
2.2122,-254,621,-1706
2.6946,-661,687,-6268
2.11770,-681,-138,-4209
2.16770,-417,69,-1270
2.21595,-150,82,-2648
2.26419,-231,-292,-4936
2.31419,-11,-442,-2957
2.36274,266,-388,-2672
2.41098,262,-388,-3305
2.46098,198,-547,-1693
2.50922,278,-743,-2147
2.55746,487,-1029,-3193
2.60746,408,-836,-2215
2.65570,233,-750,-1747
2.70395,132,-1365,-3004
2.75395,0,-1686,-3029
2.80219,-127,-1740,-1952
2.85074,-420,-1897,-2322
2.90074,-531,-1916,-2956
2.94898,-175,-1659,-2006
2.99722,-93,-1372,-1061
2.104722,-477,-1547,-2138
2.109546,-417,-1802,-2856
2.114370,-70,-1898,-1159
2.119370,-2,-2134,-652
2.124195,132,-2131,-1872
2.129049,335,-1868,-1390
2.134049,448,-1756,-458
2.138874,410,-1770,-643
2.143698,319,-1611,-774
2.148698,269,-1579,-816
2.153522,37,-1865,-972
2.158346,-240,-2163,-818
2.163346,-256,-2473,-375
2.168170,-224,-2622,-6
2.172995,-299,-2493,142
2.177995,-247,-2331,-147
2.182849,-152,-2204,-499
2.187674,-13,-1888,-143
2.192674,189,-1654,162
2.197498,228,-1791,80
2.202322,278,-1807,305
2.207322,410,-1534,542
2.212146,278,-1531,517
2.217001,-63,-1816,407
2.222001,-145,-1923,601
2.226825,-124,-1909,1094
2.231649,-354,-1913,1219
2.236649,-427,-1790,899
2.241474,-274,-1532,648
2.246298,-327,-1274,842
2.251298,-279,-1222,1124
2.256122,-4,-1188,1024
2.260946,196,-933,882
2.265946,282,-924,1069
2.270771,296,-1090,1305
2.275595,224,-1127,1498
2.280595,82,-1143,1631
2.285419,117,-925,1398
2.290243,112,-731,1278
2.295243,-245,-747,1619
2.300098,-534,-636,1799
2.304922,-540,-490,1624
2.309922,-513,-425,1439
2.314746,-459,-381,1492
2.319571,-170,-304,1585
2.324571,98,-174,1481
2.329395,132,-88,1383
2.334219,169,-50,1305
2.339219,266,17,1362
2.344043,355,85,1583
2.348868,246,133,1603
2.353868,-118,219,1528
2.358692,-340,317,1467
2.363546,-302,376,1474
2.368546,-383,508,1669
2.373371,-577,614,1801
2.378195,-581,569,1681
2.383195,-324,662,1071
2.388019,141,805,635
2.392843,478,810,1160
2.397843,512,883,1551
2.402668,419,953,1126
2.407492,351,967,583
2.412492,319,1060,615
2.417316,144,1153,1058
2.422171,-181,1274,1287
2.427171,-445,1456,1324
2.431995,-629,1596,1101
2.436819,-733,1714,655
2.441819,-625,1681,449
2.446643,-559,1542,326
2.451468,-495,1494,267
2.456468,-88,1467,614
2.461292,303,1492,773
2.466116,401,1565,382
2.471116,396,1562,-124
2.475940,312,1621,-402
2.480764,224,1767,-342
2.485764,246,1733,-192
2.490251,187,1674,-54
2.495472,-33,1774,-15
2.500326,-293,1826,19
2.505326,-542,1887,-618
2.510150,-593,1965,-1597
2.514975,-411,1922,-761
2.519975,-468,1819,-313
2.524799,-511,1671,-1411
2.529623,-142,1714,-1224
2.534623,144,1792,-958
2.539447,260,1555,-1434
2.544272,248,1401,-1295
2.549272,116,1410,-1447
2.554096,112,1489,-1824
2.558920,174,1365,-1500
2.563920,55,1157,-1750
2.568744,-184,1548,-2348
2.573599,-309,1551,-1861
2.578599,-227,867,-2047
2.583423,-88,1055,-2656
2.588247,-49,1212,-1847
2.593247,39,594,-2068
2.597733,-6,735,-3029
2.602954,-136,883,-2734
2.607779,-93,408,-2175
2.612779,39,332,-2282
2.617603,198,351,-3216
2.622427,151,399,-2525
2.627427,30,346,-1822
2.632251,-38,-161,-3548
2.637076,-143,-88,-3222
2.642076,-134,-20,-2275
2.646900,-131,-522,-3205
2.651754,-129,-524,-3020
2.656754,-63,-550,-2627
2.661579,-47,-708,-2588
2.666403,98,-640,-2432
2.671403,219,-904,-2784
2.676227,153,-943,-2354
2.681051,192,-833,-1847
2.686051,148,-1209,-2329
2.690876,39,-1343,-2422
2.695700,24,-1365,-2482
2.700700,-24,-1520,-2125
2.705524,-163,-1668,-2086
2.710348,-259,-1893,-2650
2.715348,-174,-1699,-1581
2.720203,-224,-1506,-1340
2.725027,-318,-1722,-2391
2.730027,-186,-1672,-1881
2.734851,14,-1620,-1027
2.739676,82,-1904,-1420
2.744676,121,-1961,-1595
2.749500,348,-1847,-840
2.754324,462,-1770,-672
2.759324,342,-1640,-952
2.764148,91,-1859,-920
2.768972,-231,-2216,-1188
2.773972,-272,-2050,-1322
2.778797,-238,-1938,-488
2.783651,-358,-2238,324
2.788651,-359,-2315,-63
2.793476,-284,-2191,-834
2.798300,-274,-2252,-638
2.803300,-161,-2236,64
2.808124,158,-2088,144
2.812948,330,-2056,-120
2.817948,353,-1913,-79
2.822773,564,-1640,183
2.827597,498,-1597,416
2.832597,205,-1711,430
2.837421,212,-1552,467
2.842245,58,-1577,589
2.847245,-409,-1998,615
2.852069,-640,-2202,862
2.856894,-534,-2216,1119
2.861894,-406,-2059,1014
2.866748,-347,-1695,758
2.871573,-184,-1388,535
2.876573,128,-1191,535
2.881397,296,-1147,862
2.886221,264,-1225,1189
2.891221,305,-1216,1212
2.896045,299,-1215,1217
2.900869,257,-1243,1319
2.905869,219,-1263,1435
2.910694,53,-1357,1605
2.915518,-258,-1325,1558
2.920518,-599,-1195,1462
2.925373,-518,-1084,1726
2.930197,-225,-874,1764
2.935197,-81,-561,1139
2.940021,92,-450,1062
2.944845,103,-627,1726
2.949845,-92,-663,1701
2.954670,-109,-558,1535
2.959494,105,-540,1855
2.964494,235,-429,1592
2.969348,83,-252,1194
2.974173,-136,-258,1567
2.979173,-236,-292,1964
2.983997,-350,-156,1965
2.988821,-484,-88,2115
2.993821,-495,-61,2064
2.998645,-274,103,1565
3.3470,41,155,1630
3.8470,128,116,1673
3.13294,223,230,967
3.18118,471,337,871
3.23118,387,373,1514
3.27942,187,430,1885
3.32797,176,491,1840
3.37797,-202,596,1810
3.42621,-627,696,2049
3.47445,-615,698,1946
3.52445,-452,705,1189
3.57270,-118,780,753
3.62094,226,864,1214
3.67094,405,912,1587
3.71918,487,940,1253
3.76742,316,1008,953
3.81742,-56,1133,1223
3.86597,-259,1230,1646
3.91421,-286,1280,1519
3.96421,-463,1296,962
3.101245,-616,1333,628
3.106070,-433,1473,689
3.111070,-152,1519,999
3.115894,7,1508,1198
3.120718,74,1551,1049
3.125718,112,1498,757
3.130542,182,1451,512
3.135397,189,1526,444
3.140397,94,1515,446
3.145221,-56,1539,458
3.150045,-224,1692,580
3.155045,-179,1660,410
3.159870,-36,1656,87
3.164694,-209,1819,82
3.169694,-433,1908,180
3.174518,-281,1978,91
3.179342,-59,1990,-424
3.184342,10,1933,-597
3.189197,-58,1931,-197
3.194021,-188,1740,-220
3.199021,-45,1383,-563
3.203846,207,1389,-586
3.208670,174,1724,-172
3.213670,-68,2072,-706
3.218494,-220,2028,-1577
3.223318,-142,1690,-854
3.228318,-142,1649,-704
3.233142,-209,1669,-1374
3.237967,-154,1710,-1395
3.242967,-156,1746,-1341
3.247821,-106,1528,-1484
3.252646,148,1492,-1743
3.257646,312,1401,-1161
3.262470,128,971,-1293
3.267294,-106,1230,-2436
3.272294,-186,1664,-1848
3.277118,-215,1140,-1620
3.281942,-106,998,-2518
3.286942,-2,1283,-2291
3.291767,57,840,-1906
3.296621,80,569,-1906
3.301621,-83,832,-2404
3.306077,-234,883,-2732
3.311328,-115,658,-2223
3.316153,1,378,-2323
3.321153,58,255,-2552
3.325977,276,341,-2336
3.330801,108,214,-2691
3.335801,-252,14,-3073
3.340625,-170,216,-2507
3.345450,-142,17,-2443
3.350450,-240,-561,-3145
3.355304,-50,-577,-2931
3.360129,160,-429,-2320
3.365129,194,-536,-2361
3.369953,98,-658,-2450
3.374777,19,-497,-1859
3.379777,178,-658,-2322
3.384601,114,-1186,-3329
3.389425,-118,-1131,-2259
3.394425,-104,-1088,-1654
3.399250,-113,-1397,-2714
3.404104,-75,-1427,-2600
3.409104,-13,-1345,-1740
3.413929,-72,-1465,-1770
3.418753,-58,-1597,-2327
3.423753,-25,-1532,-2120
3.428577,0,-1500,-1390
3.433401,85,-1593,-1634
3.438401,71,-1593,-1832
3.443225,49,-1611,-1395
3.448080,42,-1756,-1372
3.453080,-84,-1934,-1420
3.457904,-125,-2138,-1208
3.462729,-179,-2093,-1127
3.467729,-274,-1863,-1058
3.472553,-131,-1743,-990
3.477377,76,-1757,-1038
3.482377,71,-1877,-983
3.487232,-13,-1884,-763
3.492056,44,-1916,-458
3.497056,67,-2175,-331
3.501880,7,-2348,-222
3.506704,30,-2286,12
3.511704,-6,-2225,-322
3.516529,-134,-2220,-727
3.521353,-152,-2220,-90
3.526353,-25,-2111,467
3.531208,49,-1940,-18
3.536032,66,-1806,-295
3.541032,228,-1679,105
3.545856,278,-1709,337
3.550680,107,-1865,280
3.555680,98,-1947,396
3.560504,89,-1902,749
3.565329,-161,-1931,867
3.570329,-325,-2031,614
3.575183,-315,-2023,587
3.580008,-300,-1918,848
3.585008,-268,-1725,928
3.589832,-170,-1527,778
3.594318,-22,-1443,694
3.599201,67,-1390,869
3.604422,73,-1382,1119
3.609422,160,-1454,1248
3.614246,198,-1413,1224
3.619101,53,-1352,1185
3.624101,-33,-1381,1255
3.628925,26,-1281,1289
3.633749,67,-1111,1301
3.638749,-95,-1118,1456
3.643573,-225,-1120,1649
3.648398,-217,-1020,1765
3.653398,-284,-981,1715
3.658222,-156,-924,1540
3.663076,48,-840,1524
3.668076,107,-725,1405
3.672901,196,-611,1219
3.677725,69,-613,1483
3.682725,-208,-583,1774
3.687549,-156,-518,1806
3.692373,39,-461,1944
3.697373,-43,-388,2089
3.702198,-313,-395,1964
3.707022,-502,-331,1583
3.712022,-374,-183,1258
3.716877,-31,-149,1423
3.721701,-8,-95,1897
3.726701,-175,17,1956
3.731525,-15,94,1714
3.736349,221,174,1844
3.741349,242,205,2031
3.746173,191,146,1646
3.750998,112,203,1192
3.755998,41,248,1281
3.760822,-68,192,1610
3.765677,-159,455,1892
3.770677,-142,657,1894
3.775501,-272,603,1762
3.780325,-408,733,1969
3.785325,-331,857,1964
3.790149,-195,808,1139
3.794973,-61,746,507
3.799973,67,833,1128
3.804798,264,932,1726
3.809652,385,914,1460
3.814652,403,958,1205
3.819477,342,1048,1062
3.824301,-15,1153,1448
3.829301,-327,1303,2008
3.834125,-474,1355,1410
3.838949,-663,1373,442
3.843949,-690,1483,419
3.848774,-529,1619,1008
3.853598,-274,1728,1403
3.858598,-54,1614,1149
3.863422,192,1310,378
3.868277,407,1231,212
3.873277,348,1403,755
3.878101,335,1487,765
3.882925,310,1469,603
3.887925,107,1626,644
3.892749,14,1819,255
3.897574,-127,1810,30
3.902574,-475,1878,121
3.907428,-661,2056,435
3.912253,-577,2056,648
3.917253,-556,1926,-559
3.922077,-409,1792,-1002
3.926901,-13,1739,232
3.931901,183,1789,460
3.936725,139,1733,-418
3.941549,133,1587,-1074
3.946549,267,1665,-713
3.951404,323,1756,-527
3.956228,130,1646,-411
3.961228,-90,1771,74
3.966053,-304,1999,-1479
3.970877,-420,1997,-1961
3.975877,-275,1865,-463
3.980701,-174,1665,-1320
3.985556,-170,1489,-1465
3.990556,-200,1419,-1058
3.995380,-197,1471,-1729
4.204,46,1510,-1325
4.5204,230,1373,-1616
4.10028,133,1289,-1675
4.14853,74,1271,-1559
4.19853,44,1110,-2070
4.24677,-47,1040,-1727
4.29532,5,1155,-2066
4.34532,5,1203,-2427
4.39356,-49,990,-2120
4.44180,-133,833,-2291
4.49180,-302,815,-2309
4.54004,-206,639,-2429
4.58828,-102,528,-2334
4.63828,-15,407,-2266
4.68683,262,244,-2854
4.73507,280,460,-2325
4.78507,33,441,-2084
4.83332,-231,-79,-3180
4.88156,-250,-67,-2741
4.93156,-45,-27,-2136
4.97980,-29,-450,-2873
4.102835,-34,-515,-2847
4.107835,174,-406,-2370
4.112659,189,-486,-2411
4.117483,-6,-595,-2332
4.122483,0,-731,-2498
4.127307,30,-908,-2857
4.131794,-77,-838,-2009
4.137014,-100,-1029,-2245
4.142014,-22,-1406,-3088
4.146839,-67,-1074,-1561
4.151693,-143,-1043,-1732
4.156693,-68,-1470,-3043
4.161518,-45,-1470,-2016
4.166342,103,-1402,-1247
4.171342,257,-1499,-1774
4.176166,-42,-1693,-2493
4.180990,-183,-1732,-1947
4.185990,-150,-1602,-1140
4.190815,-202,-1575,-1431
4.195639,-122,-1577,-1543
4.200639,-83,-1722,-1649
4.205493,-18,-2000,-1402
4.210318,10,-2032,-972
4.215318,-56,-1956,-893
4.220142,26,-1768,-847
4.224966,235,-1529,-1013
4.229966,183,-1782,-783
4.234790,-192,-2041,-629
4.239645,-238,-2031,-927
4.244645,-92,-1911,-768
4.249469,-118,-1868,-420
4.254294,232,-2497,-281
4.259294,364,-2754,-129
4.264118,-163,-2236,78
4.268942,-324,-2120,71
4.273942,-159,-2068,-334
4.278766,-147,-1816,-543
4.283621,-18,-1820,-108
4.288621,180,-1845,266
4.293445,260,-1806,66
4.298269,364,-1843,-75
4.303269,382,-1906,316
4.308094,203,-2011,769
4.312918,32,-2007,814
4.317918,-200,-1906,596
4.322742,-492,-1947,448
4.327566,-499,-1925,508
4.332566,-363,-1831,792
4.337421,-338,-1793,1028
4.342245,-183,-1677,858
4.347245,166,-1490,648
4.352069,341,-1432,867
4.356894,271,-1570,1185
4.361894,307,-1470,1124
4.366718,367,-1279,889
4.371542,292,-1347,957
4.376542,71,-1416,1324
4.381366,-288,-1500,1667
4.386191,-388,-1484,1681
4.391191,-413,-1341,1430
4.396045,-586,-1270,1355
4.400869,-545,-1163,1458
4.405869,-418,-1047,1408
4.410694,-263,-991,1310
4.415518,174,-877,1265
4.420518,507,-768,1392
4.425342,448,-856,1781
4.430166,362,-884,1849
4.435166,344,-720,1503
4.439991,217,-681,1410
4.444815,-17,-745,1714
4.449815,-218,-718,2094
4.454670,-354,-652,2081
4.459494,-540,-554,1780
4.464494,-565,-445,1801
4.469318,-343,-370,1915
4.474142,-200,-293,1626
4.479142,-172,-200,1251
4.483966,-70,-131,1364
4.488791,62,-142,1892
4.493791,180,-102,2147
4.498615,219,-18,1971
4.503439,182,-15,1823
4.508439,201,19,1878
4.513294,216,91,1972
4.518118,117,94,1631
4.523118,-125,108,1137
4.527942,-277,216,1544
4.532766,-233,298,2335
4.537766,-240,316,2108
4.542591,-274,412,1367
4.547415,-220,573,1426
4.552415,-88,601,1951
4.557239,-49,573,1914
4.562063,-165,660,1581
4.567063,-172,782,1624
4.571918,-147,871,1626
4.576742,-122,846,1240
4.581742,128,783,1114
4.586566,349,824,1587
4.591391,349,783,1864
4.596391,271,783,1574
4.600877,64,983,1381
4.606098,-267,1149,1499
4.610922,-517,1283,1673
4.615922,-502,1424,1571
4.620746,-267,1430,1096
4.625601,-42,1380,623
4.630601,0,1380,571
4.635425,-83,1378,1082
4.640249,-159,1406,1599
4.645249,-115,1399,1594
4.650074,-20,1406,1260
4.654898,-52,1501,635
4.659898,21,1526,103
4.664753,99,1606,471
4.669577,-118,1746,1149
4.674577,-267,1701,1119
4.679401,-197,1621,669
4.684225,-147,1651,355
4.689225,-59,1681,258
4.694049,96,1699,287
4.698874,180,1769,410
4.703874,124,1864,498
4.708698,14,1819,153
4.713553,-115,1751,-218
4.718553,-359,1880,-59
4.723377,-517,2017,249
4.728201,-550,2072,180
4.733201,-600,2067,-525
4.738025,-306,1981,-747
4.742849,149,1744,-163
4.747849,248,1599,-142
4.752704,196,1715,-497
4.757528,144,1619,-495
4.762528,173,1605,-774
4.767353,232,1815,-941
4.772177,51,1774,-434
4.777177,-250,1869,-1095
4.782001,-359,2040,-1609
4.786856,-329,1946,-916
4.791856,-347,1689,-899
4.796680,-345,1362,-1215
4.801504,-256,1462,-1611
4.806504,-136,1744,-1574
4.811328,-79,1567,-1374
4.816153,83,1346,-1538
4.821153,292,1367,-1552
4.826007,267,1219,-1532
4.830832,180,1008,-1532
4.835832,101,1114,-1866
4.840656,57,1153,-1945
4.845480,58,957,-1720
4.850480,-2,917,-2204
4.855304,41,1015,-2220
4.860159,-4,876,-1973
4.865159,-279,778,-2675
4.869983,-363,1032,-2463
4.874807,-315,832,-1897
4.879807,-163,212,-2643
4.884632,87,221,-2541
4.889456,201,389,-1850
4.894456,171,151,-2454
4.899311,10,130,-2775
4.904135,-197,230,-2466
4.909135,-129,107,-2463
4.913959,57,-131,-2656
4.918783,-79,-338,-2636
4.923783,-67,-318,-2200
4.928608,107,-443,-2391
4.933462,76,-659,-2654
4.938462,98,-597,-2250
4.943286,105,-504,-1900
4.948111,-24,-652,-2177
4.953111,-104,-984,-2857
4.957597,-54,-1036,-2523
4.962818,-25,-981,-1852
4.967642,-174,-1236,-2241
4.972642,-238,-1338,-2381
4.977497,-134,-1143,-1886
4.982321,-74,-1208,-1993
4.987321,28,-1491,-2166
4.992145,16,-1470,-1793
4.996969,146,-1318,-1209
5.1969,235,-1561,-1679
5.6794,-183,-1720,-2420
5.11648,-202,-1604,-1559
5.16648,-18,-1591,-1136
5.21472,-133,-1607,-1647
5.26297,-125,-1761,-1588
5.31297,-68,-1952,-1295
5.36121,-65,-2034,-1102
5.40976,-120,-1959,-1118
5.45976,-43,-1775,-1027
5.50800,124,-1677,-813
5.55624,194,-1563,-847
5.60624,158,-1647,-904
5.65448,-79,-1865,-904
5.70273,-222,-1995,-745
5.75273,-108,-2138,-399
5.80097,-99,-2198,-356
5.84951,-222,-2266,-436
5.89951,-111,-2218,-299
5.94776,146,-2041,-440
5.99600,217,-2079,-625
5.104600,185,-2109,-229
5.109424,198,-1936,273
5.114248,205,-1863,208
5.119248,83,-1945,-224
5.124103,-90,-1940,-200
5.128927,-142,-1988,307
5.133927,-79,-2029,467
5.138752,5,-1898,194
5.143576,35,-1918,80
5.148576,19,-2041,312
5.153400,-63,-2084,567
5.158224,-127,-2029,632
5.163224,-75,-1870,566
5.168079,-77,-1720,499
5.172903,-184,-1654,548
5.177903,-231,-1700,673
5.182727,-158,-1768,874
5.187552,-38,-1802,1105
5.192552,-63,-1834,1092
5.197376,-147,-1832,908
5.202231,-33,-1729,851
5.207231,149,-1606,955
5.212055,246,-1477,1074
5.216879,230,-1315,1010
5.221879,48,-1322,976
5.226703,-240,-1463,1235
5.231527,-358,-1532,1576
5.236527,-300,-1556,1703
5.241352,-263,-1516,1499
5.246206,-138,-1352,1223
5.251206,67,-1197,1165
5.256031,183,-1140,1294
5.260855,210,-1099,1442
5.265855,185,-1054,1542
5.270679,117,-1002,1546
5.275503,-25,-988,1503
5.280503,-149,-1040,1617
5.285358,-172,-1056,1764
5.290182,-227,-1088,1783
5.295182,-265,-1090,1826
5.300006,-161,-974,1792
5.304831,39,-788,1623
5.309831,126,-631,1615
5.314655,5,-606,1776
5.319479,-59,-606,1823
5.324479,-11,-581,1760
5.329303,-81,-579,1753
5.334158,-254,-600,1781
5.339158,-302,-556,1726
5.343982,-90,-454,1703
5.348806,121,-454,1867
5.353806,121,-420,2022
5.358631,92,-311,1965
5.363455,-24,-283,1765
5.368455,-236,-238,1796
5.373310,-263,-220,2001
5.378134,-247,-236,1931
5.383134,-306,-152,1842
5.387958,-309,-59,1972
5.392782,-265,-2,2085
5.397782,-150,49,2003
5.402607,-22,108,1837
5.407431,35,166,1821
5.412431,142,210,1790
5.417285,299,246,1621
5.422110,382,196,1542
5.427110,444,141,1630
5.431934,455,164,1803
5.436758,237,178,2030
5.441758,-147,280,2094
5.446582,-411,469,2105
5.451407,-525,551,2106
5.456407,-631,603,1901
5.461261,-633,723,1773
5.466086,-600,683,1612
5.471086,-474,599,1515
5.475910,-127,757,1835
5.480734,112,894,1992
5.485734,242,844,1706
5.490558,385,782,1428
5.495382,457,737,1374
5.500382,503,680,1390
5.505207,446,657,1503
5.510031,328,742,1728
5.515031,108,889,1698
5.519886,-395,1090,1706
5.524710,-715,1353,2031
5.529710,-715,1444,1921
5.534534,-695,1390,1323
5.539358,-567,1371,932
5.544358,-274,1340,840
5.549182,139,1269,1076
5.554007,421,1142,1524
5.559007,464,1099,1576
5.563861,414,1224,1305
5.568686,321,1349,1153
5.573686,185,1437,1049
5.578510,3,1592,1124
5.583334,-170,1710,1208
5.588334,-413,1724,958
5.593158,-618,1680,796
5.597644,-654,1562,942
5.602896,-558,1508,1128
5.607896,-299,1574,1253
5.612720,-77,1665,1101
5.617544,19,1669,380
5.622544,96,1660,-138
5.627368,142,1787,337
5.632193,217,1837,864
5.637193,330,1664,701
5.642017,389,1524,367
5.646872,201,1599,491
5.651872,-249,1764,746
5.656696,-445,1944,698
5.661520,-349,2144,573
5.666520,-440,2274,-436
5.671344,-467,2181,-1000
5.676169,-283,1880,64
5.681169,-159,1628,642
5.685993,7,1649,687
5.690847,60,1837,-213
5.695847,19,1812,-1241
5.700672,98,1753,-456
5.705496,132,1842,96
5.710496,96,1844,-118
5.715320,-117,1939,-550
5.720144,-345,2060,-663
5.725144,-300,1946,-393
5.729969,-279,1842,-1290
5.734793,-242,1860,-1100
5.739793,-86,1865,-397
5.744648,-45,1674,-1177
5.749472,-4,1508,-825
5.754472,30,1587,-691
5.759296,-27,1464,-1325
5.764120,-83,1562,-1334
5.769120,-156,2014,-1441
5.773606,-142,1903,-1232
5.778827,48,1274,-1272
5.783651,271,1055,-1502
5.788651,235,1403,-1440
5.793506,-65,1326,-1463
5.798330,-163,1199,-1834
5.803330,-86,1453,-2125
5.808155,-152,1224,-1631
5.812979,-174,969,-1668
5.817979,-31,1190,-2232
5.822803,83,1183,-2020
5.827658,89,837,-1449
5.832658,128,564,-1709
5.837482,92,723,-2532
5.842306,-97,921,-2186
5.847306,-168,619,-2016
5.852130,-165,503,-2514
5.856955,-127,589,-2118
5.861955,30,349,-2204
5.866779,101,257,-2631
5.871634,8,414,-2295
5.876634,-74,323,-2363
5.881458,-163,178,-2457
5.886282,-161,87,-2243
5.891282,-61,-279,-2623
5.896106,-47,-400,-2632
5.900931,1,-249,-2297
5.905931,78,-275,-2268
5.910755,116,-336,-2141
5.915609,66,-552,-2397
5.920609,-77,-779,-2736
5.925434,-84,-547,-1893
5.930258,37,-313,-1179
5.935258,162,-908,-2672
5.940082,151,-1188,-2913
5.944906,44,-743,-1191
5.949906,-122,-1095,-2009
5.954761,-297,-1500,-3068
5.959585,-234,-1108,-1782
5.964585,-168,-1022,-1666
5.969410,-136,-1275,-2464
5.974234,91,-1372,-1795
5.979234,160,-1474,-1575
5.984058,117,-1361,-1616
5.988913,178,-1297,-1181
5.993913,-4,-1559,-1863
5.998737,-127,-1659,-1998
6.3561,-129,-1597,-1357
6.8561,-243,-1591,-1257
6.13385,-242,-1613,-1324
6.18210,-168,-1736,-1563
6.23210,-42,-1897,-1374
6.28034,98,-1923,-1050
6.32889,110,-1834,-1036
6.37889,78,-1709,-938
6.42713,142,-1650,-904
6.47537,112,-1813,-1024
6.52537,-42,-1848,-1045
6.57361,-104,-1725,-861
6.62185,-167,-1956,-690
6.67185,-202,-2106,-533
6.72040,-117,-2063,-481
6.76864,-34,-2172,-618
6.81864,-13,-2238,-524
6.86689,3,-2232,-238
6.91513,62,-2100,-217
6.96513,87,-1970,-374
6.101337,21,-2020,-379
6.106192,-11,-2020,-152
6.111192,-8,-1945,85
6.116016,-49,-1904,24
6.120840,-93,-1857,-193
6.125840,-117,-1886,-192
6.130664,-138,-2018,67
6.135489,-113,-2118,367
6.140489,-34,-2131,410
6.145313,64,-2077,210
6.150168,196,-1932,149
6.155168,296,-1818,333
6.159992,264,-1850,499
6.164816,130,-1836,491
6.169816,-47,-1802,467
6.174640,-227,-1929,628
6.179464,-263,-1991,837
6.184464,-272,-1963,942
6.189289,-402,-2041,912
6.194143,-433,-1998,701
6.199143,-304,-1768,555
6.203968,-54,-1632,608
6.208792,199,-1591,757
6.213792,266,-1516,867
6.218616,226,-1486,876
6.223440,219,-1565,987
6.228440,224,-1643,1207
6.233295,162,-1666,1339
6.238119,62,-1634,1333
6.243119,-92,-1606,1219
6.247943,-299,-1670,1207
6.252768,-352,-1677,1383
6.257768,-261,-1547,1464
6.262592,-163,-1395,1385
6.267416,-75,-1268,1303
6.272416,-20,-1222,1207
6.277240,-2,-1218,1190
6.282095,21,-1206,1280
6.287095,-18,-1213,1330
6.291919,-129,-1232,1406
6.296743,-104,-1224,1594
6.301743,10,-1224,1774
6.306568,14,-1307,1872
6.311392,-22,-1315,1878
6.316392,-58,-1195,1705
6.321216,-124,-1072,1489
6.326071,-93,-963,1419
6.331071,14,-893,1406
6.335895,76,-879,1501
6.340719,99,-897,1735
6.345719,85,-915,1917
6.350544,41,-897,1994
6.355368,8,-845,1917
6.360368,-15,-781,1696
6.365192,-59,-731,1587
6.370016,-134,-713,1719
6.375016,-272,-704,1922
6.379871,-358,-675,2055
6.384695,-325,-629,2108
6.389695,-293,-588,2030
6.394519,-247,-533,1828
6.399344,-167,-468,1615
6.404344,-38,-456,1503
6.409168,194,-474,1542
6.413992,405,-456,1678
6.418992,437,-427,1987
6.423847,312,-431,2303
6.428671,110,-413,2249
6.433671,-59,-329,2040
6.438495,-188,-268,1919
6.443319,-345,-259,1885
6.448319,-472,-236,1965
6.453144,-534,-202,1958
6.457968,-518,-131,1908
6.462968,-372,-67,2085
6.467823,-197,-56,2262
6.472647,-117,-13,2133
6.477647,-50,46,1810
6.482471,64,66,1615
6.487295,223,64,1751
6.492295,346,57,1947
6.497119,387,41,1944
6.501944,442,57,1851
6.506944,474,105,1853
6.511798,442,101,1896
6.516623,301,132,1824
6.521623,-70,239,1860
6.526447,-543,266,2076
6.531271,-765,328,2210
6.536271,-733,405,2140
6.541095,-715,382,1931
6.545920,-636,448,1798
6.550920,-365,524,1758
6.555744,23,492,1806
6.560598,332,494,1908
6.565598,348,592,1965
6.570423,260,649,1976
6.575247,244,605,1837
6.580247,217,574,1615
6.585071,176,549,1574
6.589895,-25,551,1790
6.594895,-275,660,1971
6.599381,-338,808,1965
6.604264,-386,944,1951
6.609516,-390,999,1840
6.614340,-231,971,1626
6.619340,-40,912,1451
6.624164,201,835,1351
6.628988,455,803,1417
6.633988,526,823,1635
6.638813,367,908,1846
6.643667,67,1073,1939
6.648667,-272,1149,1878
6.653492,-542,1157,1667
6.658316,-656,1212,1410
6.663316,-606,1248,1281
6.668140,-481,1228,1301
6.672964,-272,1244,1408
6.677964,41,1310,1610
6.682788,228,1331,1673
6.687643,242,1301,1417
6.692643,212,1298,1180
6.697467,160,1298,1103
6.702292,85,1287,1105
6.707292,-15,1303,1255
6.712116,-111,1315,1356
6.716940,-190,1392,1405
6.721940,-227,1528,1480
6.726764,-217,1624,1360
6.731619,-252,1694,1107
6.736619,-318,1737,910
6.741443,-295,1712,821
6.746267,-184,1587,828
6.751267,21,1448,903
6.756092,199,1462,974
6.760916,171,1528,965
6.765916,-42,1549,874
6.770771,-300,1696,830
6.775595,-274,1856,907
6.780595,-2,1892,832
6.785419,58,1930,574
6.790243,-15,1871,374
6.795243,17,1658,233
6.800067,21,1592,462
6.804892,-104,1755,980
6.809892,-211,1828,1026
6.814746,-229,1776,448
6.819571,-234,1892,-302
6.824571,-200,2049,-281
6.829395,-125,2015,308
6.834219,-31,1937,348
6.839219,8,1890,214
6.844043,-95,1862,203
6.848898,-120,1867,7
6.853898,-11,1851,-195
6.858722,35,1781,-268
6.863546,8,1840,-225
6.868546,-52,1976,-143
6.873371,-86,1942,-113
6.878195,-147,1885,-465
6.883195,-277,1897,-781
6.888019,-322,1917,-374
6.892843,-274,1890,-495
6.897843,-206,1846,-879
6.902698,-140,1912,-611
6.907522,-58,1896,-690
6.912522,66,1817,-858
6.917347,119,1746,-1093
6.922171,85,1430,-908
6.927171,-20,1376,-306
6.932025,-163,1740,-1141
6.936850,-168,1803,-1650
6.941850,-115,1756,-1165
6.946674,-99,1705,-1161
6.951498,-43,1419,-1349
6.956498,132,1256,-1400
6.961322,301,1289,-1116
6.966177,133,1348,-1443
6.971177,-120,1455,-1827
6.976001,-231,1469,-1524
6.980826,-304,1226,-1652
6.985826,-265,1224,-2070
6.990650,-152,1360,-1931
6.995474,-77,1065,-1643
7.474,8,883,-1870
7.5329,112,1033,-2036
7.10153,128,1005,-1529
7.15153,5,742,-1768
7.19977,-192,789,-2645
7.24801,-233,973,-2213
7.29801,-167,657,-1922
7.34626,-152,408,-2270
7.39450,-25,467,-2140
7.44450,114,383,-2215
7.49274,99,342,-2154
7.54129,30,405,-2045
7.59129,-67,276,-2404
7.63953,-138,91,-2509
7.68777,-181,137,-2250
7.73777,-208,51,-2270
7.78601,-167,-218,-2440
7.83426,-68,-308,-2498
7.88426,51,-302,-2531
7.93280,108,-209,-2075
7.98105,157,-231,-1843
7.103105,176,-499,-2277
7.107929,69,-672,-2411
7.112753,-33,-620,-2141
7.117753,-74,-550,-1852
7.122577,-113,-791,-2300
7.127432,-165,-931,-2616
7.132432,-140,-786,-1931
7.137256,-92,-970,-1973
7.142080,-22,-1193,-2288
7.147080,87,-1127,-1952
7.151905,105,-1088,-1906
7.156729,57,-1191,-2029
7.161729,16,-1270,-1757
7.166553,5,-1156,-1181
7.171408,-9,-1334,-1840
7.176408,-92,-1588,-2539
7.181232,-79,-1365,-1361
7.186056,124,-1429,-1279
7.191056,139,-1645,-1834
7.195880,-120,-1515,-1218
7.200735,-299,-1572,-1411
7.205735,-322,-1686,-1765
7.210559,-320,-1657,-1158
7.215384,-325,-1738,-1058
7.220384,-267,-1832,-1627
7.225208,-72,-1861,-1454
7.230032,155,-1829,-981
7.235032,174,-1707,-1009
7.239856,101,-1643,-920
7.244681,180,-1668,-741
7.249681,264,-1659,-749
7.254535,228,-1579,-708
7.259359,155,-1656,-620
7.264359,-8,-2011,-738
7.269184,-184,-2279,-920
7.274008,-250,-2290,-631
7.279008,-265,-2322,-204
7.283832,-206,-2295,-338
7.288656,-127,-2079,-615
7.293656,-97,-1975,-543
7.298481,-79,-1957,-242
7.303335,-77,-1848,-47
7.308335,-63,-1804,-447
7.313160,-67,-1995,-852
7.317984,-47,-2304,-184
7.322984,1,-2473,726
7.327808,-2,-2398,690
7.332632,33,-2088,144
7.337632,133,-1613,-377
7.342487,328,-1404,-629
7.347311,449,-1566,-102
7.352311,453,-1632,733
7.357135,508,-1552,844
7.361960,416,-1447,367
7.366960,435,-1232,3
7.371784,349,-1197,144
7.376608,-372,-1991,412
7.381608,-752,-2963,307
7.386463,-486,-3223,648
7.391287,-408,-3122,1560
7.396287,-631,-2614,1458
7.401111,-654,-1877,169
7.405935,-558,-1279,-531
7.410935,-800,-733,-9
7.415421,-672,-961,551
7.420304,39,-1574,715
7.425525,512,-1686,987
7.430380,619,-2147,1373
7.435380,467,-2666,1505
7.440204,276,-2334,1271
7.445028,516,-1366,862
7.450028,855,-658,546
7.454853,680,-768,582
7.459677,230,-900,1017
7.464677,-242,-1150,1558
7.469501,-699,-1818,2022
7.474325,-886,-2365,2319
7.479325,-872,-2716,1035
7.484180,-813,-2484,-774
7.489004,-666,-1866,5
7.494004,-590,-1584,1580
7.498828,-467,-1261,1828
7.503653,-274,-904,1430
7.508653,-59,-908,1065
7.513477,346,-1168,1217
7.518301,569,-1643,1490
7.523301,510,-2123,1398
7.528125,419,-2297,976
7.532980,124,-2190,694
7.537980,-243,-2027,1008
7.542804,-409,-1774,1528
7.547629,-502,-1372,1639
7.552629,-534,-979,1365
7.557453,-442,-838,1107
7.562277,-324,-979,1098
7.567277,-193,-1263,1212
7.572101,-45,-1613,1292
7.576925,49,-1873,1308
7.581925,83,-2015,1323
7.586780,42,-2057,1480
7.591452,-52,-1918,1671
7.596452,-127,-1657,1681
7.601090,-190,-1397,1564
7.606311,-177,-1175,1412
7.611136,-34,-1015,1353
7.616136,171,-977,1424
7.620960,366,-1081,1460
7.625784,466,-1232,1462
7.630784,489,-1347,1421
7.635639,451,-1427,1323
7.640463,316,-1382,1319
7.645463,98,-1250,1476
7.650287,-108,-1175,1694
7.655111,-240,-1108,1837
7.660111,-338,-1108,1880
7.664936,-388,-1216,1872
7.669760,-399,-1279,1778
7.674760,-386,-1281,1590
7.679584,-336,-1259,1448
7.684439,-245,-1188,1433
7.689439,-97,-1099,1514
7.694263,14,-1031,1639
7.699087,76,-972,1755
7.704087,149,-941,1778
7.708911,183,-990,1733
7.713736,160,-1070,1690
7.718736,119,-1125,1644
7.723560,67,-1163,1660
7.728415,19,-1190,1758
7.733415,-70,-1134,1864
7.738239,-165,-1036,1892
7.743063,-200,-990,1814
7.748063,-242,-918,1739
7.752887,-243,-859,1644
7.757712,-193,-918,1542
7.762712,-117,-961,1612
7.767536,-20,-943,1760
7.772360,48,-974,1889
7.777360,60,-1006,1978
7.782215,23,-1006,1926
7.787039,42,-961,1853
7.792039,57,-890,1803
7.796863,3,-865,1721
7.801687,-34,-840,1705
7.806687,-108,-813,1781
7.811512,-149,-829,1858
7.816336,-100,-843,1853
7.821336,-79,-858,1817
7.826160,-83,-859,1806
7.831015,-65,-836,1767
7.836015,-33,-816,1756
7.840839,1,-795,1830
7.845663,10,-800,1901
7.850663,12,-820,1942
7.855487,5,-834,1953
7.860312,0,-868,1926
7.865312,-9,-845,1862
7.870136,-36,-804,1762
7.874991,-45,-816,1756
7.879991,-47,-774,1805
7.884815,-61,-716,1801
7.889639,-75,-722,1851
7.894639,-79,-731,1899
7.899463,-83,-759,1885
7.904287,-43,-793,1869
7.909287,-29,-777,1871
7.914142,-45,-772,1890
7.918966,-11,-806,1874
7.923966,0,-795,1878
7.928791,-13,-758,1926
7.933615,-27,-743,1906
7.938615,-40,-729,1856
7.943439,-43,-768,1819
7.948263,-58,-802,1798
7.953263,-65,-763,1815
7.958118,-84,-756,1867
7.962942,-108,-793,1928
7.967942,-77,-797,1928
7.972766,-47,-793,1903
7.977591,-75,-809,1922
7.982591,-72,-813,1910
7.987415,-15,-813,1855
7.992239,-6,-786,1833
7.997239,-59,-768,1844
8.2094,-81,-793,1871
8.6918,-58,-777,1878
8.11918,-61,-745,1872
8.16742,-63,-761,1880
8.21566,-50,-788,1853
8.26566,-63,-790,1835
8.31391,-65,-795,1856
8.36215,-47,-820,1858
8.41215,-75,-813,1881
8.46070,-81,-793,1919
8.50894,-50,-813,1874
8.55894,-47,-822,1826
8.60718,-25,-802,1835
8.65542,-18,-788,1853
8.70542,-36,-783,1855
8.75367,-36,-793,1842
8.80191,-52,-815,1831
8.85191,-61,-825,1837
8.90015,-34,-824,1853
8.94839,-13,-827,1846
8.99839,-29,-852,1826
8.104694,-56,-881,1833
8.109518,-25,-863,1846
8.114518,0,-863,1842
8.119342,-27,-902,1828
8.124167,-34,-881,1803
8.129167,-31,-847,1798
8.133991,-52,-884,1808
8.138815,-63,-900,1806
8.143815,-59,-886,1796
8.148639,-74,-931,1789
8.153494,-49,-943,1790
8.158494,-34,-927,1796
8.163318,-77,-966,1806
8.168142,-83,-977,1803
8.173142,-72,-981,1765
8.177967,-54,-1004,1715
8.182791,-25,-1018,1724
8.187791,-11,-1024,1735
8.192646,1,-1011,1698
8.197470,-6,-1024,1689
8.202470,-4,-1047,1714
8.207294,0,-1043,1749
8.212118,-34,-1024,1774
8.217118,-47,-1027,1746
8.221942,-47,-1054,1712
8.226767,-72,-1061,1710
8.231767,-59,-1072,1719
8.236621,-40,-1102,1723
8.241108,-50,-1116,1681
8.246328,-49,-1122,1651
8.251328,-22,-1133,1658
8.256153,-15,-1122,1662
8.260977,-38,-1134,1656
8.265977,-81,-1179,1676
8.270801,-125,-1183,1703
8.275625,-108,-1175,1687
8.280625,-77,-1158,1658
8.285480,-117,-1209,1614
8.290304,-109,-1286,1619
8.295304,-58,-1232,1653
8.300129,-56,-1227,1581
8.304953,-17,-1259,1546
8.309953,23,-1247,1565
8.314777,8,-1259,1546
8.319632,19,-1254,1514
8.324632,57,-1279,1483
8.329456,60,-1291,1506
8.334280,26,-1257,1539
8.339280,23,-1302,1505
8.344104,94,-1334,1483
8.348929,216,-1302,1478
8.353929,360,-1372,1358
8.358783,426,-1491,1235
8.363608,328,-1575,1278
8.368608,98,-1736,1364
8.373432,-204,-1923,1439
8.378256,-429,-1922,1562
8.383256,-495,-1770,1606
8.388080,-454,-1574,1535
8.392904,-372,-1354,1414
8.397904,-224,-1197,1246
8.402759,-40,-1168,1094
8.407583,35,-1279,996
8.412583,37,-1466,1017
8.417408,46,-1643,1153
8.422232,21,-1799,1253
8.427232,-81,-1904,1358
8.432087,-184,-1920,1480
8.436911,-224,-1834,1483
8.441911,-249,-1691,1406
8.446735,-245,-1527,1335
8.451559,-199,-1395,1256
8.456559,-159,-1372,1158
8.461383,-124,-1425,1085
8.466208,-106,-1532,1024
8.471208,-100,-1624,982
8.476062,-68,-1682,1026
8.480887,-88,-1754,1048
8.485887,-122,-1772,1101
8.490711,-124,-1738,1240
8.495535,-184,-1718,1289
8.500535,-233,-1693,1289
8.505359,-236,-1670,1262
8.510183,-234,-1674,1151
8.515183,-193,-1674,1067
8.520008,-147,-1652,994
8.524862,-145,-1668,878
8.529862,-100,-1656,869
8.534687,-45,-1604,917
8.539511,-97,-1654,898
8.544511,-179,-1702,912
8.549335,-217,-1697,960
8.554159,-227,-1729,980
8.559159,-238,-1736,937
8.563983,-274,-1736,844
8.568838,-293,-1861,794
8.573838,-83,-1979,739
8.578662,285,-2018,642
8.583487,467,-2161,701
8.588487,530,-2181,839
8.593311,594,-1972,655
8.597797,583,-1770,303
8.603018,517,-1682,162
8.608018,523,-1695,249
8.612842,449,-1657,594
8.617697,55,-1807,701
8.622697,-374,-2198,296
8.627521,-517,-2516,283
8.632345,-513,-2698,739
8.637345,-616,-2415,774
8.642170,-640,-1932,228
8.646994,-433,-1815,-325
8.651994,-327,-1725,-318
8.656818,-242,-1675,96
8.661673,-88,-1759,212
8.666673,-63,-1779,-49
8.671497,-68,-1884,-120
8.676321,-27,-2070,124
8.681321,5,-2191,335
8.686145,41,-2213,344
8.690970,21,-2159,174
8.695970,-88,-2036,-54
8.700794,-79,-1788,-92
8.705649,67,-1670,-345
8.710649,112,-1998,-868
8.715473,167,-2323,-384
8.720297,287,-2275,362
8.725297,283,-2118,-172
8.730121,248,-1829,-763
8.734945,276,-1459,-656
8.739945,216,-1277,-470
8.744770,24,-1509,-518
8.749594,-138,-2081,-884
8.754594,-217,-2502,-783
8.759449,-249,-2497,-215
8.764273,-325,-2163,-531
8.769273,-381,-1895,-1145
8.774097,-284,-1761,-1124
8.778921,-195,-1695,-1172
8.783921,-152,-1731,-1181
8.788745,24,-1807,-884
8.793570,212,-1854,-916
8.798570,198,-1702,-1183
8.803424,121,-1599,-954
8.808249,187,-1695,-829
8.813249,216,-1543,-1108
8.818073,0,-1454,-1177
8.822897,-209,-1768,-1515
8.827897,-238,-1866,-1898
8.832721,-252,-1636,-1570
8.837545,-267,-1440,-1166
8.842545,-131,-1456,-1415
8.847400,51,-1520,-1857
8.852224,135,-1445,-1752
8.857224,126,-1304,-1211
8.862049,-15,-1116,-1066
8.866873,-249,-1195,-1852
8.871873,-358,-1524,-2613
8.876697,-274,-1472,-2325
8.881521,-118,-1145,-1666
8.886521,-15,-1050,-1479
8.891346,-6,-1036,-1584
8.896200,78,-879,-1813
8.901200,187,-818,-2118
8.906024,130,-904,-2157
8.910849,67,-874,-1961
8.915849,0,-784,-1934
8.920673,-104,-818,-2131
8.925497,-149,-790,-2291
8.930497,-161,-579,-2311
8.935321,-45,-465,-2188
8.940176,17,-468,-2013
8.945176,-100,-415,-2002
8.950000,-75,-386,-2159
8.954825,19,-338,-2284
8.959825,28,-215,-2302
8.964649,57,-143,-2181
8.969473,71,-102,-1972
8.974473,8,-95,-2052
8.979328,-68,-93,-2322
8.984152,-84,-49,-2341
8.989152,-43,7,-2220
8.993976,-15,99,-2063
8.998800,24,221,-1982
9.3800,105,371,-2013
9.8625,105,473,-1959
9.13449,44,480,-1963
9.18449,8,549,-2023
9.23273,-129,599,-2143
9.28128,-272,560,-2457
9.33128,-240,671,-2393
9.37952,-318,719,-2016
9.42776,-247,753,-1747
9.47776,105,942,-1709
9.52262,139,928,-2095
9.57483,135,844,-1936
9.62307,224,808,-1461
9.67307,174,901,-1541
9.72132,69,1087,-1613
9.76956,-143,1112,-1859
9.81956,-304,1231,-2070
9.86811,-315,1292,-1716
9.91635,-324,1149,-1445
9.96635,-336,1183,-1529
9.101459,-365,1392,-1677
9.106283,-268,1510,-1747
9.111283,33,1456,-1572
9.116108,210,1390,-1238
9.120932,251,1378,-1166
9.125932,335,1230,-1120
9.130786,391,1096,-981
9.135611,273,1339,-1195
9.140611,-34,1662,-1388
9.145435,-354,1723,-1261
9.150259,-497,1748,-1129
9.155259,-456,1789,-1109
9.160083,-470,1669,-1093
9.164908,-415,1621,-1106
9.169908,-172,1723,-1040
9.174762,26,1646,-791
9.179587,182,1633,-850
9.184587,271,1812,-954
9.189411,273,1724,-695
9.194235,239,1583,-654
9.199235,182,1623,-670
9.204059,96,1640,-561
9.208883,-59,1769,-567
9.213883,-218,1939,-477
9.218708,-349,2037,-709
9.223532,-429,1994,-815
9.228532,-456,1849,-479
9.233387,-422,1914,-588
9.238211,-236,1956,-450
9.243211,-31,1896,-133
9.248035,82,1892,-356
9.252859,183,1846,-495
9.257859,217,1819,-392
9.262683,214,1789,-259
9.267508,142,1776,-83
9.272508,-120,1896,80
9.277332,-333,1992,226
9.282156,-393,1992,114
9.287156,-442,2026,-561
9.292011,-340,2031,-608
9.296835,-100,1946,203
9.301835,42,1881,399
9.306659,53,1862,130
9.311483,8,1881,-79
9.316483,-29,1905,-154
9.321308,-77,1912,5
9.326132,-156,1939,178
9.331132,-206,1964,314
9.335987,-193,1951,371
9.340811,-129,1897,257
9.345811,-63,1903,207
9.350635,-8,1944,301
9.355459,16,1935,371
9.360459,-18,1967,396
9.365284,-68,1969,326
9.370108,-99,1874,253
9.375108,-127,1844,274
9.379932,-140,1883,342
9.384787,-111,1910,466
9.389787,-113,1917,516
9.394611,-115,1876,478
9.399435,-61,1883,494
9.404435,-50,1899,494
9.409259,-72,1885,498
9.414084,-95,1933,601
9.419084,-131,1924,601
9.423908,-147,1856,548
9.428763,-142,1860,587
9.433763,-102,1844,605
9.438587,-50,1815,617
9.443411,-42,1823,623
9.448411,-56,1821,612
9.453235,-65,1814,644
9.458059,-92,1817,657
9.463059,-95,1824,687
9.467884,-61,1831,748
9.472708,-68,1828,760
9.477708,-95,1830,751
9.482563,-93,1826,755
9.487387,-133,1799,742
9.492387,-145,1805,748
9.497211,-77,1824,790
9.502035,-79,1815,764
9.507035,-109,1810,721
9.511859,-93,1790,758
9.516684,-90,1762,740
9.521684,-79,1801,746
9.526508,-49,1851,837
9.531363,-54,1790,780
9.536363,-74,1765,732
9.541187,-83,1823,787
9.546011,-102,1806,785
9.551011,-90,1785,751
9.555835,-72,1817,742
9.560660,-118,1824,787
9.565660,-111,1808,780
9.570484,-56,1812,733
9.575338,-70,1810,748
9.580338,-92,1794,755
9.585163,-84,1798,765
9.589987,-75,1805,773
9.594987,-70,1812,773
9.599473,-74,1814,783
9.604694,-104,1799,735
9.609518,-117,1799,714
9.614518,-90,1812,748
9.619342,-77,1826,740
9.624197,-77,1840,735
9.629197,-93,1846,733
9.634021,-83,1871,715
9.638846,-65,1887,685
9.643846,-52,1864,646
9.648670,-49,1846,644
9.653494,-92,1828,648
9.658494,-83,1817,617
9.663318,-90,1835,610
9.668173,-127,1840,628
9.673173,-109,1828,603
9.677997,-83,1814,564
9.682821,-40,1831,560
9.687821,-17,1876,560
9.692646,-42,1885,530
9.697470,-84,1894,496
9.702470,-129,1937,505
9.707294,-175,1942,501
9.712118,-202,1944,473
9.717118,-174,1931,441
9.721973,-118,1890,380
9.726797,-72,1883,376
9.731797,-40,1887,380
9.736621,-25,1903,353
9.741446,-22,1896,362
9.746446,-20,1860,346
9.751270,-20,1876,310
9.756094,-70,1915,321
9.761094,-159,1953,337
9.765949,-192,1989,292
9.770773,-159,1981,183
9.775773,-140,1960,128
9.780597,-100,1953,103
9.785421,-18,1931,91
9.790421,19,1922,135
9.795246,32,1896,112
9.800070,24,1831,89
9.805070,-79,1860,110
9.809894,-243,1949,105
9.814718,-295,2028,160
9.819718,-322,2085,-134
9.824573,-325,2035,-486
9.829397,-179,1962,-165
9.834397,-33,1912,73
9.839222,98,1849,-74
9.844046,166,1826,-225
9.849046,126,1808,-350
9.853870,23,1840,-318
9.858694,-186,1931,-234
9.863694,-311,1983,-175
9.868549,-325,2008,-450
9.873373,-272,1983,-675
9.878373,-97,1905,-320
9.883197,32,1896,-406
9.888022,74,1885,-658
9.893022,74,1821,-481
9.897508,14,1783,-604
9.902729,-31,1723,-683
9.907553,-56,1712,-550
9.912553,-90,1806,-658
9.917377,-100,1840,-841
9.922232,-149,1858,-875
9.927232,-261,1828,-788
9.932056,-267,1746,-816
9.936880,-183,1724,-909
9.941880,-92,1724,-906
9.946704,17,1780,-1022
9.951529,116,1744,-1034
9.956529,139,1583,-929
9.961353,80,1528,-1045
9.966208,76,1489,-1008
9.971208,73,1415,-1061
9.976032,-25,1478,-1206
9.980856,-106,1617,-1183
9.985856,-133,1606,-1316
9.990680,-154,1503,-1336
9.995504,-209,1478,-1334
10.504,-279,1449,-1438
10.5329,-277,1435,-1415
10.10153,-188,1412,-1316
10.15153,-111,1290,-1404
10.20008,1,1308,-1686
10.24832,144,1314,-1606
10.29832,196,1107,-1372
10.34656,151,1019,-1457
10.39480,64,1082,-1645
10.44480,-2,1119,-1722
10.49305,-93,1078,-1700
10.54129,-240,1037,-1834
10.59129,-313,1092,-1950
10.63953,-317,1092,-1827
10.68808,-292,830,-1831
10.73808,-136,701,-1990
10.78632,28,908,-2152
10.83456,91,857,-1943
10.88456,146,603,-1579
10.93280,189,514,-1749
10.98105,101,503,-1920
10.103105,3,516,-1891
10.107929,3,521,-2027
10.112753,-84,492,-2234
10.117753,-192,480,-2357
10.122577,-211,498,-2236
10.127432,-250,410,-2106
10.132432,-195,187,-2154
10.137256,-52,67,-2057
10.142080,17,44,-2081
10.147080,39,3,-2286
10.151905,69,19,-2070
10.156729,153,19,-1929
10.161729,169,-33,-2038
10.166553,74,-106,-2061
10.171377,53,-197,-2095
10.176377,30,-218,-2036
10.181201,-75,-311,-2247
10.186026,-158,-443,-2415
10.191026,-184,-420,-2091
10.195880,-163,-479,-2054
10.200705,-113,-625,-2234
10.205705,-47,-579,-1981
10.210529,26,-545,-1954
10.215353,48,-588,-2098
10.220353,33,-629,-1852
10.225177,48,-797,-1909
10.230002,78,-866,-1931
10.235002,108,-836,-1720
10.239826,64,-959,-2009
10.244650,-54,-1025,-2082
10.249650,-74,-1016,-1872
10.254474,14,-1106,-2116
10.259298,73,-1129,-2106
10.264298,105,-1113,-1493
10.269153,89,-1147,-1181
10.273977,-36,-1141,-1524
10.278977,-134,-1213,-1847
10.283802,-172,-1268,-1647
10.288626,-306,-1254,-1532
10.293626,-390,-1377,-1838
10.298450,-317,-1395,-1686
10.303274,-304,-1279,-1272
10.308274,-372,-1450,-1718
10.313098,-149,-1634,-2016
10.317923,353,-1641,-1240
10.322923,282,-1509,-1147
10.327747,35,-1174,-1174
10.332602,208,-1175,-788
10.337602,153,-1457,-1632
10.342426,28,-1591,-1581
10.347250,-34,-1754,-983
10.352250,-138,-1870,-1384
10.357074,-61,-1848,-1063
10.361899,-31,-1841,-920
10.366899,-102,-1811,-1240
10.371723,-122,-1727,-1040
10.376547,-127,-1641,-950
10.381547,-154,-1577,-1113
10.386402,-147,-1582,-1136
10.391226,-59,-1668,-1043
10.396226,55,-1707,-934
10.401050,117,-1729,-781
10.405874,114,-1857,-613
10.410874,105,-1890,-613
10.415699,76,-1756,-784
10.420523,-15,-1732,-929
10.425523,-83,-1832,-893
10.430347,-90,-1922,-708
10.435171,-115,-2009,-586
10.440171,-143,-2047,-609
10.445026,-133,-2036,-661
10.449850,-124,-2056,-656
10.454850,-129,-2032,-604
10.459674,-84,-1972,-549
10.464499,0,-1931,-543
10.469499,62,-1873,-542
10.474323,119,-1818,-508
10.479147,169,-1790,-454
10.484147,144,-1802,-408
10.488971,57,-1909,-402
10.493826,-34,-2018,-409
10.498826,-100,-2052,-329
10.503650,-109,-2102,-261
10.508474,-127,-2106,-300
10.513474,-129,-2020,-258
10.518299,-83,-1950,-208
10.523123,-102,-1913,-315
10.528123,-134,-1881,-383
10.532947,-83,-1868,-345
10.537771,-13,-1872,-322
10.542771,33,-1915,-311
10.547596,78,-1995,-243
10.552450,85,-2050,-117
10.557450,76,-2093,-56
10.562274,73,-2111,-67
10.567099,51,-2023,-61
10.572099,8,-1950,-108
10.576923,-49,-1952,-149
10.581747,-77,-1932,-72
10.586747,-95,-1938,-49
10.591571,-120,-1970,-113
10.596057,-122,-1977,-72
10.601278,-111,-2006,-34
10.606278,-111,-2052,-90
10.611103,-67,-2018,-118
10.615957,8,-1943,-133
10.620957,51,-1941,-125
10.625782,85,-1938,5
10.630606,82,-1932,128
10.635606,48,-1947,107
10.640430,64,-1916,108
10.645254,57,-1959,130
10.650254,-31,-2016,80
10.655078,-93,-2015,53
10.659903,-120,-2045,24
10.664903,-211,-2079,-20
10.669727,-259,-2095,-34
10.674551,-158,-2025,-49
10.679551,-70,-1913,-56
10.684037,-38,-1875,-47
10.689258,12,-1861,-15
10.694113,41,-1868,51
10.699113,44,-1913,101
10.703937,23,-1966,112
10.708761,-11,-2016,108
10.713761,-27,-2075,76
10.718586,-84,-2115,58
10.723410,-113,-2093,42
10.728410,-104,-2102,-27
10.733234,-154,-2111,-43
10.738058,-127,-1986,-68
10.743058,-33,-1895,-118
10.747913,-20,-1916,-99
10.752737,23,-1886,-77
10.757737,71,-1886,-111
10.762561,57,-1965,-111
10.767386,78,-1975,-72
10.772386,94,-1981,-31
10.777210,67,-2032,24
10.782034,46,-2038,-8
10.787034,30,-2002,-63
10.791858,-6,-1984,-47
10.796682,-47,-1990,-109
10.801682,-54,-1984,-202
10.806537,-63,-1966,-222
10.811361,-88,-2007,-265
10.816361,-102,-2056,-315
10.821186,-115,-2041,-308
10.826010,-131,-2047,-277
10.831010,-134,-2054,-270
10.835834,-118,-2045,-309
10.840658,-95,-2031,-297
10.845658,-43,-1979,-240
10.850483,16,-1965,-274
10.855337,46,-1945,-309
10.860337,73,-1868,-293
10.865161,108,-1859,-308
10.869986,142,-1848,-342
10.874986,155,-1804,-393
10.879810,87,-1872,-402
10.884634,-43,-1998,-402
10.889634,-127,-2075,-454
10.894489,-186,-2093,-445
10.899313,-234,-2016,-590
10.904313,-215,-1940,-774
10.909137,-172,-1947,-627
10.913962,-88,-1943,-529
10.918962,-8,-1938,-690
10.923786,55,-1916,-749
10.928610,112,-1829,-611
10.933610,116,-1736,-586
10.938434,124,-1729,-575
10.943289,146,-1822,-552
10.948289,57,-1866,-852
10.953113,-104,-1891,-997
10.957937,-124,-1931,-797
10.962937,-133,-1841,-791
10.967762,-209,-1790,-861
10.972586,-161,-1843,-879
10.977586,-81,-1848,-990
10.982441,-50,-1818,-1040
10.987265,-22,-1724,-999
10.992265,-9,-1638,-947
10.997089,21,-1693,-965
11.1913,64,-1718,-1111
11.6913,107,-1634,-1163
11.11737,158,-1527,-990
11.16562,99,-1513,-902
11.21562,-70,-1654,-1147
11.26416,-213,-1757,-1484
11.31241,-268,-1720,-1568
11.36241,-243,-1636,-1291
11.41065,-188,-1529,-1065
11.45889,-88,-1502,-1343
11.50889,67,-1627,-1766
11.55713,185,-1588,-1684
11.60537,205,-1318,-1190
11.65537,162,-1227,-1022
11.70362,114,-1208,-1200
11.75186,78,-1104,-1252
11.80186,-59,-1374,-1554
11.85041,-361,-1732,-2216
11.89865,-427,-1518,-2295
11.94865,-147,-1204,-1556
11.99689,3,-1193,-1170
11.104513,-45,-1184,-1652
11.109513,-36,-1127,-2018
11.114337,-6,-1074,-1799
11.119162,-38,-1004,-1495
11.124162,-86,-974,-1470
11.129016,-149,-997,-1734
11.133841,-197,-1054,-2107
11.138841,-245,-1068,-2179
11.143665,-313,-1004,-1891
11.148489,-224,-916,-1923
11.153489,19,-940,-2350
11.158313,194,-1004,-2431
11.163138,248,-822,-1906
11.168138,235,-570,-1270
11.172962,201,-475,-1172
11.177816,182,-413,-1716
11.182816,169,-408,-2165
11.187641,101,-520,-2261
11.192465,-13,-658,-2325
11.197465,-118,-609,-2118
11.202289,-188,-415,-1888
11.207113,-229,-417,-1993
11.212113,-247,-440,-2138
11.216938,-256,-267,-2232
11.221792,-215,-161,-2223
11.226792,-65,-108,-2200
11.231617,37,-59,-2218
11.236441,66,-90,-2109
11.241441,153,-70,-1916
11.246265,183,-24,-1704
11.251089,110,-2,-1706
11.256089,42,85,-1998
11.260913,-25,162,-2259
11.265768,-97,207,-2307
11.270768,-108,269,-2181
11.275592,-81,266,-2023
11.280417,-129,301,-1973
11.285417,-152,433,-1982
11.290241,-63,469,-1945
11.295065,-2,437,-1952
11.300065,3,444,-2015
11.304889,3,460,-1965
11.309713,-45,573,-2015
11.314713,-143,699,-2123
11.319538,-217,710,-1977
11.324392,-168,715,-1911
11.329392,-40,767,-1866
11.334217,64,789,-1781
11.339041,141,782,-1815
11.344041,128,739,-1681
11.348865,51,726,-1575
11.353689,-15,892,-1684
11.358689,-92,1057,-1897
11.363544,-152,1067,-1950
11.368368,-186,1046,-1724
11.373368,-174,1065,-1606
11.378192,-88,1087,-1661
11.383017,-56,1058,-1679
11.388017,-79,1107,-1645
11.392841,-58,1189,-1577
11.397665,-72,1214,-1522
11.402665,-106,1260,-1582
11.407489,-49,1262,-1591
11.412314,24,1240,-1474
11.417314,30,1273,-1416
11.422168,-8,1310,-1377
11.426993,-54,1373,-1407
11.431993,-68,1444,-1443
11.436817,-31,1455,-1322
11.441641,5,1392,-1218
11.446641,5,1308,-1190
11.451465,10,1239,-1150
11.455951,1,1294,-1240
11.461172,-81,1514,-1295
11.466172,-159,1669,-1224
11.470996,-199,1726,-1274
11.475821,-254,1737,-1263
11.480821,-267,1640,-1149
11.485645,-184,1590,-1154
11.490500,-59,1592,-1113
11.495500,55,1501,-929
11.500324,142,1469,-938
11.505148,135,1514,-1009
11.510148,32,1519,-902
11.514972,-52,1640,-943
11.519796,-108,1774,-1034
11.524796,-168,1740,-968
11.529621,-177,1715,-920
11.534475,-142,1731,-924
11.539475,-108,1698,-925
11.544300,-79,1714,-843
11.549124,-97,1780,-811
11.554124,-83,1765,-829
11.558948,-29,1730,-772
11.563772,-22,1724,-759
11.568772,-15,1715,-754
11.573597,-11,1744,-740
11.578421,0,1787,-684
11.583421,-4,1774,-627
11.588245,-65,1739,-702
11.592763,-50,1783,-690
11.597585,-13,1826,-620
11.602836,-68,1810,-675
11.607836,-99,1828,-634
11.612660,-109,1839,-588
11.617484,-186,1790,-633
11.622484,-208,1771,-575
11.627309,-167,1814,-552
11.632133,-142,1860,-565
11.637133,-106,1890,-572
11.641957,-58,1897,-593
11.646781,16,1892,-552
11.651781,42,1881,-527
11.656606,-20,1831,-515
11.661460,-22,1815,-508
11.666460,-2,1847,-499
11.671285,-93,1828,-502
11.676109,-147,1837,-518
11.681109,-124,1899,-493
11.685933,-142,1894,-463
11.690757,-140,1862,-484
11.695757,-118,1847,-517
11.700581,-92,1853,-483
11.705406,-43,1865,-488
11.710406,-20,1862,-520
11.715230,-24,1872,-468
11.720054,-61,1887,-445
11.725054,-109,1881,-467
11.729909,-136,1872,-467
11.734733,-136,1867,-465
11.739733,-124,1883,-450
11.744557,-129,1894,-409
11.749381,-109,1851,-422
11.754381,-67,1842,-468
11.759206,-45,1876,-454
11.764030,-65,1856,-461
11.769030,-68,1864,-479
11.773854,-74,1908,-429
11.778678,-106,1894,-456
11.783678,-97,1872,-511
11.788503,-90,1883,-486
11.793357,-106,1874,-484
11.798357,-90,1853,-504
11.803181,-84,1823,-525
11.808006,-72,1840,-502
11.813006,-56,1889,-442
11.817830,-81,1860,-481
11.822654,-97,1840,-508
11.827654,-97,1867,-486
11.832478,-93,1880,-558
11.837303,-95,1881,-563
11.842303,-84,1872,-511
11.847127,-95,1846,-549
11.851951,-102,1833,-545
11.856951,-61,1872,-511
11.861806,-58,1869,-545
11.866630,-59,1824,-565
11.871630,-67,1846,-542
11.876454,-72,1872,-559
11.881278,-61,1819,-593
11.886278,-65,1796,-600
11.891103,-63,1831,-588
11.895927,-83,1814,-600
11.900927,-115,1819,-641
11.905751,-100,1872,-636
11.910575,-115,1864,-681
11.915575,-152,1821,-750
11.920430,-138,1819,-702
11.925254,-138,1842,-684
11.930254,-138,1815,-729
11.935078,-86,1769,-736
11.939903,-29,1769,-738
11.944903,12,1755,-731
11.949727,42,1705,-716
11.954551,32,1694,-724
11.959551,-13,1737,-774
11.964406,-54,1739,-849
11.969230,-86,1735,-897
11.974230,-111,1781,-909
11.979054,-138,1755,-909
11.983879,-133,1680,-933
11.988879,-124,1673,-947
11.993703,-118,1703,-968
11.998527,-50,1680,-1006
12.3527,7,1614,-995
12.8351,33,1573,-933
12.13206,24,1514,-933
12.18206,0,1519,-1036
12.23030,-11,1610,-1104
12.27854,-72,1610,-1090
12.32854,-131,1540,-1111
12.37679,-138,1530,-1158
12.42503,-115,1569,-1172
12.47503,-58,1560,-1211
12.52327,-17,1481,-1218
12.57151,-40,1478,-1200
12.62151,-102,1531,-1272
12.67006,-154,1489,-1331
12.71830,-163,1415,-1338
12.76830,-150,1437,-1341
12.81654,-117,1465,-1293
12.86479,-59,1369,-1275
12.91479,-13,1290,-1354
12.96303,37,1331,-1395
12.101158,91,1317,-1409
12.106158,91,1265,-1368
12.110982,53,1244,-1347
12.115806,-6,1221,-1565
12.120806,-95,1255,-1632
12.125630,-158,1267,-1556
12.130454,-177,1217,-1677
12.135454,-143,1201,-1627
12.140279,-77,1083,-1550
12.145133,-27,1001,-1668
12.150133,0,1053,-1618
12.154958,-40,982,-1624
12.159782,-79,953,-1754
12.164782,-92,996,-1715
12.169606,-150,969,-1725
12.174430,-161,946,-1848
12.179430,-99,890,-1836
12.184254,-34,828,-1799
12.189079,23,785,-1802
12.194079,33,746,-1727
12.198903,26,735,-1809
12.203758,5,740,-1916
12.208758,-54,710,-1920
12.213582,-84,607,-1913
12.218406,-59,498,-1836
12.223406,3,426,-1900
12.228230,41,437,-1913
12.233055,44,485,-1907
12.238055,-4,457,-2100
12.242909,-111,424,-2138
12.247733,-179,487,-2073
12.252733,-188,457,-2157
12.257220,-138,305,-2109
12.262441,-56,208,-1927
12.267265,8,112,-1972
12.272265,26,60,-2068
12.277089,-4,39,-2072
12.281913,-4,8,-2091
12.286913,28,57,-1977
12.291737,49,39,-1970
12.296592,53,-24,-2066
12.301592,3,-38,-2038
12.306416,-47,-143,-2107
12.311241,-47,-181,-2097
12.316241,-36,-140,-2059
12.321065,-45,-233,-2122
12.325889,-72,-356,-2066
12.330889,-72,-452,-2086
12.335713,-97,-477,-2120
12.340568,-109,-431,-2015
12.345568,-43,-468,-2079
12.350392,-34,-472,-2091
12.355216,-38,-406,-1850
12.360216,19,-461,-1829
12.365041,49,-609,-1934
12.369865,39,-745,-1854
12.374865,26,-770,-1766
12.379689,23,-725,-1856
12.384513,-11,-743,-2009
12.389513,-81,-779,-2011
12.394368,-133,-804,-1936
12.399192,-113,-825,-1900
12.404192,-59,-866,-1875
12.409016,-59,-983,-1824
12.413841,16,-1049,-1852
12.418841,53,-977,-1788
12.423665,-31,-925,-1620
12.428489,126,-1033,-1793
12.433489,221,-1084,-1877
12.438313,103,-1090,-1465
12.443168,60,-1181,-1338
12.448168,-43,-1213,-1695
12.452992,-138,-1250,-1847
12.457816,-215,-1225,-1679
12.462816,-304,-1133,-1490
12.467641,-272,-1156,-1490
12.472465,-250,-1220,-1677
12.477465,-254,-1257,-1690
12.482289,-183,-1286,-1557
12.487113,-109,-1311,-1504
12.492113,-61,-1345,-1500
12.496968,-4,-1436,-1688
12.501792,46,-1422,-1606
12.506792,157,-1327,-1250
12.511617,257,-1381,-1365
12.516441,203,-1366,-1320
12.521441,142,-1234,-1015
12.526265,26,-1345,-1482
12.531089,-156,-1572,-1791
12.536089,-215,-1620,-1249
12.540944,-299,-1565,-1140
12.545768,-354,-1565,-1338
12.550768,-272,-1615,-1363
12.555592,-177,-1591,-1332
12.560417,-113,-1550,-1250
12.565417,17,-1568,-1397
12.570241,180,-1572,-1286
12.575065,189,-1591,-981
12.580065,169,-1516,-949
12.584889,199,-1427,-958
12.589744,135,-1479,-1134
12.594744,78,-1499,-1177
12.599200,-20,-1550,-1150
12.604451,-186,-1654,-1359
12.609275,-231,-1729,-1195
12.614275,-242,-1750,-983
12.619099,-245,-1784,-1056
12.623924,-165,-1779,-1093
12.628924,-54,-1686,-1100
12.633748,30,-1645,-1013
12.638572,76,-1570,-981
12.643572,87,-1591,-963
12.648427,62,-1681,-847
12.653251,37,-1643,-922
12.658251,-25,-1700,-1059
12.663075,-131,-1822,-1056
12.667899,-124,-1836,-1008
12.672899,-67,-1836,-943
12.677724,-72,-1838,-925
12.682548,-25,-1791,-958
12.687548,35,-1741,-974
12.692372,41,-1700,-949
12.697227,35,-1670,-909
12.702227,42,-1677,-888
12.707051,49,-1686,-886
12.711875,28,-1713,-908
12.716875,-11,-1757,-940
12.721700,-54,-1775,-966
12.726524,-79,-1815,-929
12.731524,-95,-1831,-850
12.736348,-111,-1795,-847
12.741172,-68,-1782,-929
12.746172,-20,-1784,-965
12.751027,-15,-1777,-895
12.755851,-17,-1734,-858
12.760851,-15,-1704,-883
12.765675,0,-1702,-886
12.770500,10,-1700,-866
12.775500,-4,-1757,-888
12.780324,-33,-1825,-929
12.785148,-74,-1797,-875
12.790148,-65,-1754,-838
12.795003,-31,-1775,-961
12.799827,-52,-1757,-968
12.804827,-54,-1715,-884
12.809651,-8,-1731,-933
12.814475,1,-1750,-945
12.819475,-11,-1749,-924
12.824300,3,-1722,-961
12.829124,14,-1684,-949
12.834124,1,-1684,-925
12.838948,1,-1707,-965
12.843803,12,-1707,-1000
12.848803,-11,-1704,-1031
12.853627,-36,-1700,-1031
12.858451,-33,-1699,-1006
12.863451,-47,-1691,-1020
12.868275,-52,-1677,-1054
12.873100,-58,-1684,-1070
12.878100,-75,-1686,-1074
12.882924,-31,-1659,-1090
12.887779,-20,-1636,-1059
12.892779,-52,-1645,-1040
12.897603,-18,-1645,-1129
12.902427,-33,-1627,-1168
12.907427,-63,-1643,-1140
12.912251,-45,-1625,-1118
12.917076,-40,-1590,-1140
12.922076,-17,-1607,-1216
12.926900,10,-1599,-1234
12.931754,-11,-1574,-1197
12.936754,-11,-1572,-1179
12.941579,26,-1550,-1206
12.946403,35,-1554,-1241
12.951403,39,-1554,-1257
12.956227,16,-1516,-1290
12.961051,-34,-1509,-1374
12.966051,-33,-1518,-1390
12.970876,-27,-1495,-1329
12.975730,-49,-1465,-1375
12.980730,-49,-1456,-1409
12.985555,-45,-1459,-1397
12.990379,-72,-1447,-1438
12.995379,-95,-1406,-1441
13.203,-97,-1390,-1420
13.5027,-111,-1372,-1447
13.10027,-122,-1324,-1459
13.14513,-117,-1377,-1447
13.19734,-49,-1404,-1557
13.24558,8,-1313,-1686
13.29558,64,-1295,-1640
13.34413,117,-1281,-1631
13.39237,71,-1184,-1691
13.44237,57,-1125,-1525
13.49062,49,-1118,-1320
13.53886,-70,-1122,-1482
13.58886,-172,-1229,-1781
13.63710,-229,-1320,-1856
13.68565,-274,-1224,-1752
13.73565,-256,-1131,-1572
13.78389,-197,-1075,-1507
13.83213,-175,-977,-1700
13.88213,-143,-984,-1868
13.93037,-49,-1047,-1820
13.97862,3,-1024,-1720
13.102862,-2,-990,-1672
13.107686,1,-977,-1802
13.112541,55,-975,-1979
13.117541,135,-913,-1945
13.122365,130,-800,-1766
13.127189,119,-799,-1552
13.132189,76,-799,-1540
13.137013,-70,-724,-1897
13.141837,-154,-725,-2223
13.146837,-145,-759,-2152
13.151692,-117,-713,-1931
13.156516,-63,-608,-1804
13.161516,-4,-525,-1831
13.166341,8,-518,-2002
13.171165,-4,-522,-2056
13.176165,17,-515,-1950
13.180989,14,-497,-1832
13.185813,-29,-467,-1825
13.190813,-27,-438,-1934
13.195638,-2,-372,-2025
13.200492,24,-292,-2061
13.205492,23,-275,-2022
13.210316,-43,-270,-1979
13.215141,-65,-249,-1995
13.220141,-42,-250,-2006
13.224965,-65,-209,-2025
13.229789,-83,-208,-2059
13.234789,-79,-256,-2022
13.239613,-106,-174,-1963
13.244468,-77,3,-2023
13.249468,-4,117,-2084
13.254292,14,110,-2009
13.259117,33,89,-1975
13.264117,44,126,-1993
13.268941,44,178,-1916
13.273765,26,173,-1915
13.278765,-20,149,-2029
13.283620,-8,223,-2066
13.288444,-8,294,-2056
13.293444,-54,174,-1922
13.298268,-88,92,-1752
13.303092,-122,299,-1907
13.308092,-111,478,-2077
13.312917,-68,544,-2068
13.317741,-25,626,-2009
13.322741,17,591,-1904
13.327596,-6,505,-1972
13.332420,-52,516,-1968
13.337420,-72,582,-1891
13.342244,-125,598,-1979
13.347068,-147,521,-1879
13.352068,-122,546,-1802
13.356892,-84,732,-1884
13.361717,8,823,-1786
13.366717,83,803,-1740
13.371571,92,771,-1779
13.376396,62,764,-1715
13.381396,1,823,-1740
13.386220,-124,814,-1818
13.391044,-211,733,-1802
13.396044,-188,776,-1786
13.400868,-120,901,-1725
13.405723,-17,939,-1654
13.410723,26,957,-1724
13.415547,1,1049,-1743
13.420371,-8,1096,-1654
13.425371,-13,1069,-1627
13.430196,-40,1035,-1640
13.435020,-100,1051,-1645
13.440020,-129,1082,-1620
13.444875,-134,1046,-1620
13.449699,-118,1003,-1575
13.454699,-81,1033,-1511
13.459523,-92,1094,-1579
13.464347,-95,1164,-1566
13.469347,-49,1299,-1529
13.474171,-20,1355,-1525
13.478996,-27,1217,-1493
13.483996,-25,1164,-1557
13.488820,-20,1223,-1516
13.493675,-29,1203,-1391
13.498675,-45,1199,-1399
13.503499,-70,1151,-1382
13.508323,-70,1094,-1363
13.513323,-70,1280,-1425
13.518147,-77,1473,-1438
13.522972,-79,1510,-1443
13.527972,-83,1456,-1427
13.532826,-54,1348,-1366
13.537650,-20,1331,-1343
13.542650,-22,1356,-1297
13.547475,-29,1376,-1261
13.552299,-29,1389,-1299
13.557299,-33,1374,-1288
13.562123,-52,1348,-1236
13.566947,-74,1292,-1243
13.571947,-79,1305,-1241
13.576772,-72,1414,-1252
13.581626,-77,1523,-1295
13.586626,-84,1548,-1290
13.591451,-81,1499,-1286
13.595937,-90,1444,-1249
13.601158,-79,1426,-1206
13.606158,-50,1467,-1218
13.610982,-52,1465,-1204
13.615806,-58,1440,-1195
13.620806,-70,1492,-1218
13.625661,-79,1517,-1188
13.630485,-70,1474,-1177
13.635485,-106,1433,-1249
13.640309,-97,1465,-1261
13.645133,-13,1498,-1202
13.650133,-50,1481,-1186
13.654958,-117,1483,-1204
13.659782,-65,1501,-1197
13.664782,-31,1508,-1188
13.669606,-52,1440,-1199
13.674461,-83,1380,-1149
13.679461,-104,1417,-1149
13.684285,-100,1546,-1261
13.689109,-68,1646,-1266
13.694109,-42,1551,-1199
13.698933,-50,1471,-1179
13.703758,-50,1501,-1175
13.708758,-45,1467,-1186
13.713612,-59,1448,-1229
13.718437,-70,1480,-1232
13.723437,-67,1494,-1209
13.728261,-75,1515,-1220
13.733085,-104,1505,-1204
13.738085,-92,1471,-1213
13.742909,-61,1498,-1265
13.747733,-95,1481,-1252
13.752733,-100,1448,-1229
13.757588,-59,1471,-1240
13.762412,-86,1453,-1243
13.767412,-99,1446,-1224
13.772237,-58,1485,-1200
13.777061,-74,1487,-1224
13.782061,-97,1462,-1241
13.786885,-75,1444,-1243
13.791371,-59,1456,-1238
13.796254,-68,1469,-1232
13.801505,-90,1435,-1261
13.806505,-79,1394,-1295
13.811330,-67,1414,-1313
13.816154,-61,1437,-1281
13.821154,-63,1414,-1236
13.825978,-63,1403,-1263
13.830802,-50,1387,-1304
13.835802,-75,1374,-1277
13.840657,-93,1383,-1299
13.845481,-63,1412,-1316
13.850481,-45,1385,-1257
13.855306,-33,1353,-1318
13.860130,-40,1364,-1399
13.865130,-52,1301,-1374
13.869954,-24,1299,-1372
13.874778,-52,1337,-1391
13.879778,-70,1274,-1406
13.884602,-22,1278,-1457
13.889457,-43,1315,-1493
13.894457,-67,1262,-1488
13.899281,-65,1228,-1481
13.904106,-93,1231,-1482
13.909106,-86,1214,-1493
13.913930,-45,1189,-1532
13.918754,-24,1171,-1527
13.923754,-9,1151,-1491
13.928578,-8,1140,-1543
13.933433,-42,1128,-1561
13.938433,-61,1112,-1547
13.943257,-75,1103,-1586
13.948081,-100,1098,-1597
13.953081,-113,1060,-1615
13.957906,-142,1032,-1665
13.962730,-145,1042,-1691
13.967730,-90,1028,-1666
13.972554,-31,1012,-1638
13.977409,-31,1001,-1632
13.982409,-42,985,-1650
13.987233,-29,949,-1707
13.992057,-27,935,-1704
13.997057,-22,932,-1686
14.1881,-43,880,-1732
14.6706,-49,858,-1766
14.11706,-42,869,-1782
14.16530,-59,819,-1766
14.21385,-42,783,-1732
14.26385,-29,810,-1806
14.31209,-68,751,-1827
14.36033,-109,673,-1804
14.41033,-75,683,-1898
14.45857,-11,674,-1850
14.50681,-2,632,-1766
14.55681,-4,601,-1816
14.60506,7,569,-1856
14.65330,17,539,-1836
14.70330,-2,539,-1825
14.75185,-77,533,-1982
14.80009,-95,507,-2023
14.85009,-84,492,-1947
14.89833,-120,467,-2023
14.94657,-122,419,-2031
14.99657,-81,383,-2015
14.104482,-29,346,-1991
14.109306,1,298,-1906
14.114306,19,269,-1913
14.119130,37,258,-1893
14.123985,0,207,-1906
14.128985,-54,142,-2056
14.133809,-59,164,-2066
14.138633,-77,144,-2048
14.143633,-115,92,-2141
14.148457,-77,160,-2000
14.153282,-2,114,-1931
14.158282,35,-25,-2020
14.163106,57,-50,-1920
14.167961,66,-88,-1934
14.172961,46,-134,-1977
14.177785,5,-140,-1990
14.182609,-40,-131,-2043
14.187609,-63,-129,-2007
14.192433,-49,-168,-2018
14.197257,-47,-206,-2013
14.202257,-61,-190,-2038
14.207082,-49,-175,-2068
14.211936,-58,-292,-1982
14.216936,-68,-429,-1965
14.221761,-42,-459,-1981
14.226585,-9,-474,-1965
14.231585,-8,-490,-1973
14.236409,-13,-465,-1972
14.241233,14,-467,-1925
14.246233,33,-499,-1850
14.251057,19,-499,-1859
14.255882,19,-518,-1934
14.260882,24,-545,-1882
14.265706,21,-602,-1873
14.270561,5,-665,-1909
14.275561,-17,-654,-1852
14.280385,-59,-693,-1940
14.285209,-90,-724,-1947
14.290209,-95,-716,-1879
14.295033,-99,-715,-1907
14.299858,-77,-706,-1859
14.304858,-31,-816,-1881
14.309682,21,-906,-1786
14.314506,78,-856,-1629
14.319506,96,-849,-1727
14.324330,44,-893,-1775
14.329154,-43,-906,-1795
14.334154,-104,-933,-1868
14.339009,-97,-936,-1782
14.343833,-68,-924,-1775
14.348833,-20,-975,-1804
14.353658,14,-1016,-1627
14.358482,39,-1047,-1659
14.363482,92,-1095,-1722
14.368306,83,-1083,-1486
14.373130,23,-1070,-1507
14.378130,-42,-1113,-1715
14.382954,-99,-1133,-1684
14.387809,-136,-1140,-1631
14.392809,-156,-1174,-1657
14.397633,-140,-1172,-1665
14.402458,-152,-1163,-1629
14.407458,-138,-1152,-1607
14.412282,-43,-1084,-1615
14.417106,-18,-1083,-1556
14.422106,-22,-1186,-1513
14.426930,14,-1220,-1568
14.431785,16,-1224,-1550
14.436785,5,-1243,-1472
14.441609,-8,-1220,-1504
14.446433,-27,-1213,-1566
14.451433,-70,-1227,-1550
14.456258,-124,-1250,-1529
14.461082,-120,-1245,-1575
14.466082,-108,-1188,-1615
14.470906,-117,-1156,-1581
14.475730,-83,-1158,-1565
14.480730,-38,-1222,-1547
14.485555,-18,-1329,-1515
14.490409,-9,-1416,-1486
14.495409,-31,-1452,-1474
14.500233,-49,-1366,-1511
14.505058,-52,-1286,-1529
14.510058,-63,-1311,-1509
14.514882,-34,-1327,-1450
14.519706,-8,-1332,-1436
14.524706,-13,-1304,-1477
14.529561,-17,-1238,-1459
14.534385,-31,-1240,-1443
14.539385,-40,-1291,-1443
14.544209,-36,-1345,-1441
14.549034,-43,-1397,-1434
14.554034,-18,-1441,-1370
14.558858,12,-1452,-1356
14.563682,-9,-1416,-1368
14.568682,-27,-1404,-1352
14.573168,-22,-1402,-1382
14.578389,-27,-1384,-1404
14.583244,-25,-1384,-1399
14.588244,-22,-1372,-1391
14.592793,-36,-1374,-1382
14.597554,-43,-1395,-1391
14.602775,-18,-1381,-1366
14.607775,-31,-1388,-1372
14.612599,-58,-1416,-1402
14.617423,-9,-1384,-1377
14.622423,-4,-1295,-1382
14.627248,-49,-1274,-1370
14.632072,-54,-1304,-1377
14.637072,-88,-1340,-1450
14.641927,-56,-1416,-1407
14.646751,0,-1475,-1370
14.651751,-33,-1474,-1441
14.656575,-33,-1393,-1424
14.661399,-24,-1336,-1397
14.666399,-33,-1347,-1457
14.671223,-2,-1322,-1482
14.676048,-4,-1313,-1470
14.681048,-43,-1318,-1479
14.685872,-54,-1318,-1507
14.690727,-49,-1316,-1534
14.695727,-31,-1293,-1540
14.700551,5,-1293,-1541
14.705375,1,-1272,-1499
14.710375,-15,-1250,-1457
14.715199,-18,-1281,-1534
14.720024,-49,-1290,-1595
14.725024,-74,-1274,-1566
14.729848,-86,-1279,-1574
14.734702,-70,-1263,-1591
14.739702,-56,-1227,-1563
14.744527,-102,-1218,-1543
14.749351,-109,-1206,-1532
14.754351,-63,-1215,-1552
14.759175,-29,-1234,-1581
14.763999,-31,-1190,-1572
14.768999,-36,-1174,-1579
14.773824,-43,-1200,-1600
14.778648,-40,-1184,-1586
14.783648,-29,-1183,-1570
14.788503,-79,-1202,-1599
14.793327,-83,-1150,-1593
14.798327,-42,-1113,-1575
14.803151,-83,-1181,-1622
14.807975,-90,-1163,-1650
14.812975,-70,-1090,-1638
14.817799,-99,-1106,-1620
14.822624,-74,-1118,-1629
14.827624,-70,-1095,-1657
14.832448,-106,-1065,-1632
14.837272,-59,-1068,-1649
14.842272,-34,-1068,-1691
14.847096,-58,-1041,-1647
14.851951,-56,-1056,-1688
14.856951,-61,-1049,-1727
14.861775,-61,-1008,-1661
14.866599,-59,-1013,-1732
14.871599,-75,-1022,-1832
14.876424,-36,-999,-1795
14.881248,28,-968,-1770
14.886248,57,-918,-1766
14.891072,94,-883,-1666
14.895896,124,-843,-1602
14.900896,85,-818,-1720
14.905721,-17,-879,-1891
14.910575,-100,-845,-1891
14.915575,-133,-750,-1836
14.920399,-129,-774,-1881
14.925224,-93,-781,-1893
14.930224,-33,-734,-1875
14.935048,30,-720,-1881
14.939872,51,-700,-1852
14.944872,46,-649,-1824
14.949696,28,-616,-1824
14.954521,21,-602,-1829
14.959521,41,-584,-1927
14.964375,5,-588,-1943
14.969200,-43,-540,-1848
14.974200,-59,-488,-1923
14.979024,-74,-515,-1975
14.983848,-86,-527,-1950
14.988848,-102,-486,-1968
14.993672,-102,-434,-1927
14.998496,-106,-409,-1950
15.3496,-58,-408,-1991
15.8351,49,-393,-1913
15.13175,92,-327,-1859
15.18175,78,-295,-1843
15.23000,44,-297,-1888
15.27824,-11,-261,-2002
15.32824,-75,-283,-2091
15.37648,-104,-243,-2141
15.42472,-117,-193,-2081
15.47472,-120,-329,-1904
15.52296,-79,-358,-1859
15.57121,-74,-229,-2111
15.62121,-65,-102,-2131
15.66975,0,83,-1925
15.71800,37,192,-2002
15.76800,53,112,-1997
15.81624,57,-2,-1916
15.86448,32,-6,-1945
15.91448,5,24,-1961
15.96272,-33,41,-2022
15.101097,-70,89,-2016
15.106097,-81,123,-2000
15.110921,-61,121,-2022
15.115775,-54,153,-1990
15.120775,-45,189,-2022
15.125600,0,189,-1997
15.130424,17,217,-1852
15.135424,19,196,-1847
15.140248,16,162,-1915
15.145072,-20,187,-1906
15.150072,-74,251,-1920
15.154897,-127,424,-1975
15.159721,-136,544,-1988
15.164721,-88,505,-1961
15.169545,-22,435,-1968
15.174400,3,403,-1943
15.179400,0,426,-1877
15.184224,1,467,-1881
15.189048,-18,508,-1904
15.194048,-72,539,-1877
15.198872,-124,535,-1877
15.203697,-117,551,-1907
15.208697,-93,596,-1913
15.213521,-120,615,-1897
15.218376,-106,608,-1886
15.223376,-45,569,-1831
15.228200,0,510,-1779
15.233024,17,516,-1763
15.238024,26,585,-1700
15.242848,41,685,-1700
15.247672,-2,824,-1804
15.252672,-72,917,-1856
15.257497,-79,867,-1831
15.262351,-49,769,-1827
15.267351,-33,773,-1809
15.272176,-22,807,-1766
15.277000,-18,794,-1761
15.282000,-47,803,-1749
15.286824,-49,839,-1740
15.291648,-29,858,-1732
15.296648,-50,864,-1738
15.301472,-68,869,-1772
15.306327,-50,865,-1734
15.311327,-56,885,-1699
15.316151,-56,919,-1681
15.320976,-18,828,-1600
15.325976,-15,776,-1627
15.330800,-31,867,-1681
15.335624,-50,957,-1638
15.340624,-81,1110,-1716
15.345448,-90,1133,-1750
15.350273,-49,990,-1625
15.355273,-24,971,-1620
15.359759,-65,967,-1677
15.365010,-72,958,-1670
15.369834,-34,1005,-1657
15.374834,-20,1021,-1631
15.379659,-50,1037,-1631
15.384483,-83,1049,-1641
15.389483,-93,1012,-1618
15.394307,-77,1017,-1618
15.399131,-50,1074,-1627
15.404131,-61,1014,-1593
15.408986,-59,1001,-1550
15.413810,-65,1098,-1586
15.418810,-77,1076,-1611
15.423634,-59,1058,-1565
15.428459,-61,1053,-1582
15.433459,-72,1037,-1599
15.438283,-59,1083,-1534
15.443107,-47,1094,-1577
15.448107,-61,1076,-1645
15.452962,-52,1071,-1581
15.457786,-50,1055,-1565
15.462786,-75,1051,-1597
15.467610,-43,1064,-1577
15.472434,-29,1076,-1566
15.477434,-33,1087,-1575
15.482259,-34,1087,-1584
15.487083,-72,1064,-1568
15.492083,-54,1064,-1565
15.496938,-20,1087,-1591
15.501762,-61,1078,-1590
15.506762,-75,1055,-1581
15.511586,-38,1069,-1609
15.516410,-42,1078,-1615
15.521410,-75,1062,-1600
15.526234,-75,1069,-1579
15.531059,-65,1080,-1572
15.536059,-93,1060,-1600
15.540883,-81,1060,-1574
15.545738,-56,1055,-1559
15.550738,-67,1044,-1616
15.555562,-43,1073,-1622
15.560386,-43,1064,-1588
15.565386,-61,1028,-1611
15.570210,-43,1032,-1629
15.575035,-43,1023,-1624
15.580035,-58,1003,-1640
15.584859,-63,1012,-1661
15.589683,-58,1019,-1675
15.594683,-52,999,-1659
15.599169,-40,996,-1666
15.604390,-47,989,-1700
15.609245,-83,946,-1690
15.614245,-54,965,-1665
15.619069,-34,962,-1681
15.623893,-75,910,-1697
15.628893,-83,917,-1688
15.633717,-65,910,-1707
15.638542,-54,878,-1718
15.643542,-56,864,-1706
15.648396,-61,871,-1702
15.653221,-75,892,-1724
15.658221,-50,896,-1738
15.663045,-18,876,-1727
15.667869,-27,848,-1724
15.672869,-38,835,-1731
15.677693,-68,815,-1779
15.682517,-86,828,-1799
15.687517,-68,832,-1774
15.692342,-77,757,-1766
15.697196,-70,742,-1779
15.702196,-17,764,-1809
15.707021,-18,735,-1788
15.711845,-36,707,-1782
15.716845,-15,694,-1788
15.721669,-6,708,-1793
15.726493,-18,682,-1820
15.731493,-31,644,-1822
15.736317,-29,658,-1845
15.741172,-11,635,-1848
15.746172,-2,617,-1802
15.750996,-11,632,-1811
15.755821,-13,589,-1847
15.760821,-18,553,-1856
15.765645,-42,555,-1882
15.770469,-95,535,-1900
15.775469,-118,501,-1920
15.780293,-97,489,-1948
15.785148,-84,501,-1925
15.790148,-47,462,-1886
15.794972,-34,391,-1906
15.799796,-20,391,-1913
15.804796,1,417,-1884
15.809621,-34,373,-1922
15.814445,-74,314,-1927
15.819445,-86,332,-1904
15.824269,-61,337,-1931
15.829124,-42,307,-1907
15.834124,-47,294,-1907
15.838948,-52,239,-1947
15.843772,-38,219,-1936
15.848772,-25,228,-1984
15.853597,-68,173,-2004
15.858421,-79,157,-1979
15.863421,-45,146,-2057
15.868245,-34,85,-2041
15.873069,-11,110,-1929
15.878069,14,141,-1915
15.882924,10,53,-1893
15.887748,19,49,-1863
15.892748,19,74,-1938
15.897572,-27,-20,-2002
15.902397,-58,-38,-2013
15.907397,-65,-24,-2041
15.912221,-90,-97,-2016
15.917045,-99,-92,-1957
15.922045,-54,-63,-1966
15.926900,-8,-143,-2002
15.931724,30,-165,-1977
15.936724,48,-159,-1957
15.941548,26,-213,-1959
15.946372,-2,-215,-1956
15.951372,-31,-227,-1988
15.956197,-72,-275,-2002
15.961051,-118,-295,-2011
15.966051,-117,-329,-2032
15.970876,-77,-370,-2031
15.975700,-49,-356,-2000
15.980700,-8,-336,-1961
15.985524,1,-402,-1916
15.990348,14,-431,-1923
15.995348,32,-418,-1948
16.172,-2,-463,-1900
16.4997,-18,-486,-1922
16.9997,-11,-492,-1932
16.14821,-6,-508,-1872
16.19676,-4,-524,-1909
16.24676,-6,-534,-1902
16.29500,3,-536,-1882
16.34324,8,-545,-1891
16.39324,0,-561,-1841
16.44148,-29,-550,-1891
16.48972,-47,-508,-1886
16.53972,-36,-517,-1800
16.58797,-24,-602,-1900
16.63621,-52,-684,-1925
16.68621,-81,-722,-1848
16.73476,-56,-777,-1881
16.78300,-24,-793,-1861
16.83300,-2,-759,-1813
16.88124,-4,-758,-1852
16.92948,5,-716,-1811
16.97948,28,-722,-1768
16.102773,12,-781,-1836
16.107597,-13,-786,-1836
16.112597,-33,-806,-1806
16.117421,-52,-840,-1822
16.122245,-79,-865,-1836
16.127245,-90,-852,-1832
16.132100,-67,-774,-1811
16.136924,-34,-725,-1766
16.141924,-8,-759,-1768
16.146410,3,-865,-1811
16.151631,-2,-959,-1757
16.156455,-17,-956,-1729
16.161455,-31,-963,-1743
16.166280,-20,-1027,-1724
16.171104,-17,-1004,-1740
16.176104,-45,-933,-1763
16.180928,-47,-950,-1757
16.185783,-13,-977,-1729
16.190783,0,-961,-1734
16.195607,-6,-975,-1750
16.200431,1,-1004,-1718
16.205431,3,-1013,-1704
16.210255,-11,-1004,-1716
16.215080,-33,-983,-1665
16.220080,-34,-997,-1629
16.224904,-25,-1024,-1675
16.229728,-40,-1027,-1668
16.234728,-43,-1038,-1665
16.239583,-43,-1031,-1686
16.244407,-74,-1024,-1668
16.249407,-68,-1058,-1675
16.254231,-43,-1065,-1693
16.259056,-31,-1038,-1688
16.264056,-15,-1033,-1659
16.268880,-20,-1043,-1645
16.273704,-27,-1034,-1677
16.278704,-29,-1031,-1688
16.283528,-18,-1038,-1661
16.288352,-43,-1047,-1693
16.293352,-75,-1047,-1718
16.298207,-43,-1022,-1670
16.303031,-59,-1006,-1675
16.308031,-67,-1011,-1720
16.312856,-9,-1004,-1702
16.317680,0,-972,-1672
16.322680,3,-970,-1681
16.327504,21,-975,-1697
16.332328,-4,-927,-1690
16.337328,-38,-909,-1690
16.342183,-36,-927,-1747
16.347007,-4,-913,-1781
16.352007,-11,-902,-1741
16.356831,-63,-922,-1741
16.361656,-47,-909,-1761
16.366656,-2,-868,-1736
16.371480,16,-866,-1722
16.376304,16,-890,-1749
16.381304,0,-863,-1750
16.386128,-18,-822,-1750
16.390952,-49,-824,-1790
16.395952,-56,-815,-1815
16.400807,-50,-813,-1824
16.405631,-29,-816,-1831
16.410631,8,-774,-1809
16.415456,7,-741,-1777
16.420280,1,-750,-1802
16.425280,5,-736,-1832
16.430104,-8,-716,-1822
16.434928,-25,-699,-1852
16.439928,-20,-661,-1856
16.444783,5,-654,-1818
16.449607,3,-666,-1856
16.454607,-24,-650,-1888
16.459431,-34,-633,-1884
16.464256,-34,-641,-1882
16.469256,-31,-620,-1866
16.474080,-6,-572,-1854
16.478904,-20,-570,-1875
16.483904,-45,-570,-1918
16.488728,-6,-552,-1897
16.493583,-22,-543,-1902
16.498583,-74,-531,-1940
16.503407,-43,-493,-1918
16.508232,-11,-479,-1895
16.513232,-11,-493,-1886
16.518056,-4,-484,-1911
16.522880,-15,-490,-1925
16.527880,-17,-479,-1900
16.532704,21,-443,-1897
16.537528,28,-431,-1870
16.542528,1,-424,-1888
16.547383,-15,-422,-1981
16.552207,-22,-392,-1973
16.557207,-43,-336,-1947
16.562032,-61,-327,-1986
16.566856,-70,-299,-1956
16.571856,-70,-286,-1929
16.576680,-43,-325,-1940
16.581504,-15,-272,-1916
16.586504,-4,-197,-1911
16.591328,1,-197,-1957
16.595815,-8,-213,-1984
16.601066,-36,-213,-1970
16.606066,-63,-170,-2015
16.610890,-74,-142,-2052
16.615714,-77,-138,-2025
16.620714,-102,-127,-2016
16.625539,-54,-90,-1993
16.630363,26,-50,-1954
16.635363,23,-74,-1927
16.640187,24,-70,-1909
16.645011,30,-47,-1893
16.650011,5,-38,-1923
16.654866,-36,-17,-1988
16.659690,-81,8,-2025
16.664690,-92,44,-2023
16.669514,-88,60,-1979
16.674339,-67,98,-1963
16.679339,-18,139,-1981
16.684163,1,123,-1965
16.688987,-4,135,-1922
16.693987,7,173,-1900
16.698842,8,151,-1957
16.703666,7,167,-1968
16.708666,7,230,-1913
16.713490,-18,226,-1920
16.718315,-36,253,-1936
16.723315,-52,273,-1948
16.728139,-104,223,-1959
16.732963,-118,276,-1948
16.737963,-86,333,-1986
16.742787,-59,326,-1957
16.747642,-52,344,-1898
16.752642,-20,346,-1902
16.757466,23,364,-1879
16.762290,16,369,-1852
16.767290,0,362,-1843
16.772115,-27,405,-1870
16.776939,-74,428,-1918
16.781939,-86,394,-1890
16.786763,-72,267,-1875
16.791618,-56,235,-1900
16.796618,-42,339,-1840
16.801442,-27,401,-1848
16.806266,-38,567,-1945
16.811266,-43,723,-1915
16.816090,-25,658,-1848
16.820915,-34,517,-1875
16.825915,-68,473,-1865
16.830739,-65,553,-1827
16.835594,-56,546,-1870
16.840594,-77,491,-1884
16.845418,-54,549,-1866
16.850242,-29,591,-1870
16.855242,-33,580,-1838
16.860066,-20,591,-1845
16.864890,-29,601,-1857
16.869890,-43,592,-1838
16.874715,-25,607,-1845
16.879539,-40,639,-1832
16.884539,-56,632,-1799
16.889394,-24,626,-1786
16.894218,-18,671,-1786
16.899218,-47,678,-1788
16.904042,-58,630,-1813
16.908866,-45,630,-1824
16.913866,-36,657,-1807
16.918691,-42,644,-1791
16.923515,-72,653,-1777
16.928515,-70,689,-1791
16.933339,-42,699,-1788
16.937825,-36,701,-1772
16.943076,-31,710,-1802
16.948076,-43,714,-1815
16.952901,-59,696,-1809
16.957725,-61,698,-1816
16.962725,-67,733,-1784
16.967549,-67,721,-1752
16.972373,-45,694,-1763
16.977373,-22,740,-1799
16.982198,-15,755,-1807
16.987022,-2,740,-1759
16.992022,-22,764,-1754
16.996846,-29,746,-1795
17.1701,-40,724,-1793
17.6701,-52,755,-1786
17.11525,-15,692,-1749
17.16349,-9,596,-1729
17.21349,-42,639,-1788
17.26173,-65,689,-1788
17.30998,-49,780,-1802
17.35998,-45,896,-1854
17.40822,-47,785,-1804
17.45646,-31,674,-1788
17.50646,-45,715,-1793
17.55501,-38,712,-1779
17.60325,-24,701,-1799
17.65325,-42,712,-1800
17.70149,-43,682,-1806
17.74973,-52,696,-1811
17.79973,-68,723,-1791
17.84798,-58,689,-1768
17.89622,-38,682,-1797
17.94622,-45,699,-1832
17.99446,-63,685,-1800
17.104301,-56,653,-1800
17.109301,-65,651,-1824
17.114125,-43,676,-1781
17.118949,-36,665,-1784
17.123949,-75,660,-1827
17.128774,-52,671,-1818
17.133598,-34,639,-1838
17.138598,-47,623,-1857
17.143422,-36,637,-1841
17.148246,-24,630,-1843
17.153246,-18,603,-1847
17.158101,-43,585,-1859
17.162925,-56,592,-1852
17.167925,-34,574,-1831
17.172749,-47,562,-1847
17.177574,-75,567,-1859
17.182574,-70,544,-1856
17.187398,-33,544,-1852
17.192222,-24,557,-1865
17.197222,-67,546,-1877
17.202046,-77,542,-1854
17.206901,-56,541,-1870
17.211901,-59,521,-1884
17.216725,-50,521,-1873
17.221549,-49,498,-1875
17.226549,-56,453,-1881
17.231374,-49,476,-1893
17.236198,-63,474,-1881
17.241198,-61,439,-1906
17.246022,-50,432,-1948
17.250846,-42,423,-1906
17.255846,-33,428,-1890
17.260670,-45,416,-1923
17.265525,-59,371,-1925
17.270525,-67,376,-1915
17.275349,-25,396,-1891
17.280174,-25,369,-1893
17.285174,-59,348,-1932
17.289998,-25,337,-1965
17.294822,-31,312,-1945
17.299822,-29,291,-1920
17.304646,14,292,-1945
17.309471,-27,294,-1954
17.314471,-61,269,-1931
17.319325,-18,264,-1925
17.324149,-22,253,-1950
17.329149,-59,223,-1966
17.333974,-75,201,-1959
17.338798,-95,180,-1934
17.343798,-92,182,-1943
17.348622,-47,171,-2011
17.353446,-20,130,-2011
17.358446,-20,107,-1947
17.363271,-4,103,-1932
17.368125,17,112,-1922
17.373125,19,116,-1906
17.377950,14,74,-1932
17.382774,-13,24,-1961
17.387774,-47,19,-1982
17.392598,-52,33,-1982
17.397422,-42,23,-1988
17.402422,-42,-4,-2009
17.407246,-43,-29,-1981
17.412071,-17,-27,-1972
17.417071,17,-47,-1977
17.421895,7,-72,-1934
17.426719,-42,-74,-1932
17.431719,-47,-88,-1982
17.436574,-8,-81,-1988
17.441398,-25,-92,-1934
17.446398,-29,-133,-1920
17.451222,-2,-150,-1940
17.456046,-13,-143,-1918
17.461046,-9,-150,-1931
17.465871,-11,-200,-1945
17.470695,-24,-234,-1938
17.475695,-45,-222,-1982
17.480519,-88,-231,-1977
17.485374,-81,-242,-1979
17.490374,-58,-236,-2011
17.495198,-58,-272,-1952
17.500022,-43,-308,-1907
17.505022,-9,-318,-1916
17.509847,5,-325,-1925
17.514671,10,-336,-1911
17.519671,32,-347,-1902
17.524495,-9,-367,-1948
17.529319,-47,-359,-1932
17.534319,-38,-342,-1886
17.539174,-56,-408,-1906
17.543998,-36,-458,-1948
17.548998,-2,-443,-1957
17.553822,-11,-433,-1884
17.558647,0,-427,-1863
17.563647,1,-445,-1907
17.568471,-18,-483,-1872
17.573295,-24,-493,-1848
17.578295,-11,-484,-1863
17.583150,1,-490,-1870
17.587974,-6,-511,-1884
17.592974,-11,-511,-1870
17.597460,5,-499,-1859
17.602681,3,-522,-1868
17.607505,-13,-542,-1866
17.612505,-13,-543,-1877
17.617329,-6,-550,-1909
17.622154,-15,-574,-1918
17.627154,-27,-595,-1879
17.632008,-33,-565,-1877
17.636833,-25,-565,-1911
17.641833,-6,-615,-1890
17.646657,3,-595,-1834
17.651481,-8,-584,-1840
17.656481,-22,-615,-1870
17.661305,-24,-595,-1857
17.666129,-25,-609,-1870
17.671129,-31,-645,-1895
17.675984,-8,-588,-1832
17.680808,-22,-661,-1884
17.685808,-42,-670,-1902
17.690633,174,-242,-1736
17.695457,391,-129,-1982
17.700457,319,-540,-2000
17.705281,208,-850,-1720
17.710105,91,-1220,-2138
17.715105,-138,-1231,-1856
17.719930,-229,-638,-1372
17.724784,-47,-584,-2172
17.729784,141,-950,-2357
17.734608,128,-1065,-1809
17.739095,158,-1200,-1956
17.744316,307,-1377,-2572
17.749316,282,-1629,-2934
17.754140,198,-1975,-2968
17.758964,183,-2191,-3036
17.763964,80,-2329,-2972
17.768788,-90,-2340,-2806
17.773612,-227,-2073,-2736
17.778612,-286,-1802,-2616
17.783467,-450,-1995,-2661
17.788291,-670,-2345,-2839
17.793291,-659,-2166,-2698
17.798116,-666,-1941,-2448
17.802940,-774,-1991,-2318
17.807940,-720,-1945,-2216
17.812764,-570,-1893,-2188
17.817588,-538,-1973,-2259
17.822588,-450,-1973,-2290
17.827412,-118,-1700,-2161
17.832267,178,-1424,-2123
17.837267,371,-1336,-2331
17.842091,576,-1274,-2425
17.846916,840,-1193,-2431
17.851916,1069,-1161,-2688
17.856740,1162,-1168,-2816
17.861564,1351,-1113,-2738
17.866564,1581,-1016,-2954
17.871388,1669,-1000,-3173
17.876212,1690,-1068,-3157
17.881212,1662,-1133,-3130
17.886067,1619,-1145,-3066
17.890891,1465,-1331,-3018
17.895891,1185,-1649,-3036
17.900716,946,-1722,-3031
17.905540,710,-1727,-2995
17.910540,517,-1979,-2943
17.915364,417,-2320,-2788
17.920188,251,-2500,-2631
17.925188,58,-2575,-2543
17.930013,0,-2677,-2411
17.934867,-93,-2739,-2361
17.939867,-336,-2732,-2461
17.944691,-368,-2702,-2398
17.949516,-165,-2725,-2222
17.954516,-15,-2888,-2179
17.959340,157,-3095,-2204
17.964164,374,-3118,-2290
17.969164,537,-2947,-2320
17.973988,582,-2838,-2390
17.978813,623,-2784,-2457
17.983813,707,-2681,-2352
17.988667,639,-2611,-2334
17.993492,598,-2450,-2231
17.998492,724,-2200,-2025
18.3316,778,-2068,-1948
18.8140,730,-1995,-1820
18.13140,748,-1913,-1672
18.17964,814,-1829,-1604
18.22788,855,-1820,-1570
18.27788,871,-1827,-1559
18.32613,851,-1752,-1570
18.37437,871,-1747,-1559
18.42437,892,-1770,-1515
18.47292,844,-1681,-1466
18.52116,819,-1606,-1366
18.57116,783,-1584,-1236
18.61940,715,-1507,-1131
18.66764,660,-1452,-1118
18.71764,642,-1475,-1211
18.76588,701,-1463,-1161
18.81413,730,-1431,-890
18.86413,690,-1404,-734
18.91237,717,-1345,-822
18.96092,751,-1338,-831
18.101092,696,-1390,-620
18.105916,658,-1368,-454
18.110740,630,-1331,-499
18.115740,539,-1350,-502
18.120564,457,-1338,-334
18.125389,408,-1343,-220
18.130389,366,-1374,-202
18.135213,312,-1349,-217
18.140037,280,-1293,-256
18.145037,273,-1231,-229
18.149861,232,-1197,-150
18.154716,205,-1184,-158
18.159716,212,-1156,-220
18.164540,183,-1136,-209
18.169364,148,-1108,-217
18.174364,180,-1050,-245
18.179189,219,-984,-172
18.184013,205,-911,-74
18.189013,182,-868,-13
18.193837,189,-833,26
18.198661,208,-763,8
18.203661,210,-786,12
18.208485,223,-861,91
18.213340,241,-872,98
18.218340,273,-911,58
18.223164,407,-931,16
18.227989,462,-938,-131
18.232989,426,-988,-245
18.237813,499,-966,-243
18.242637,521,-949,-252
18.247637,494,-1000,-313
18.252461,560,-981,-367
18.257285,578,-947,-406
18.262285,571,-993,-379
18.267110,599,-952,-311
18.271964,587,-893,-336
18.276964,551,-968,-395
18.281789,571,-1038,-404
18.286613,640,-1074,-345
18.291613,657,-1086,-308
18.296437,649,-1056,-363
18.301261,635,-1018,-379
18.306261,587,-1000,-359
18.311086,608,-965,-370
18.315910,623,-940,-397
18.320910,553,-909,-429
18.325734,528,-849,-463
18.330558,553,-818,-484
18.335558,576,-715,-534
18.340382,607,-590,-634
18.345237,639,-647,-699
18.350237,626,-722,-652
18.355061,599,-677,-511
18.359886,628,-666,-386
18.364886,680,-650,-400
18.369710,710,-624,-574
18.374534,792,-588,-699
18.379534,896,-515,-661
18.384358,944,-509,-620
18.389182,958,-533,-568
18.394182,985,-536,-568
18.399037,1044,-470,-731
18.403861,1074,-392,-749
18.408861,1110,-470,-624
18.413686,1140,-513,-650
18.418510,1119,-454,-652
18.423510,1089,-495,-520
18.428334,1064,-565,-484
18.433158,1057,-631,-575
18.438158,1024,-729,-615
18.442983,974,-775,-527
18.447837,964,-770,-342
18.452837,965,-799,-149
18.457661,985,-890,-150
18.462486,1007,-979,-302
18.467486,917,-1008,-238
18.472310,821,-1084,57
18.477134,896,-1202,216
18.482134,948,-1240,78
18.486958,924,-1290,-129
18.491783,976,-1386,-118
18.496783,1028,-1361,-11
18.501607,1094,-1241,28
18.506093,1133,-1163,24
18.511314,1144,-1145,-20
18.516314,1176,-1140,-13
18.521169,1157,-1190,30
18.525993,1099,-1284,51
18.530993,1028,-1295,51
18.535817,999,-1234,-27
18.540641,1040,-1184,-34
18.545641,1057,-1177,82
18.550465,1074,-1190,91
18.555290,1089,-1154,39
18.560290,1099,-1106,41
18.565114,1162,-1170,112
18.569969,1174,-1313,199
18.574969,1182,-1390,108
18.579793,1248,-1459,-24
18.584617,1306,-1575,16
18.589617,1315,-1686,160
18.594074,1289,-1788,244
18.598957,1326,-1836,233
18.604178,1360,-1834,178
18.609178,1306,-1836,105
18.614002,1330,-1827,119
18.618826,1369,-1715,171
18.623826,1308,-1622,149
18.628681,1442,-1602,66
18.633505,1596,-1434,-197
18.638505,1567,-1331,-493
18.643329,1501,-1382,-475
18.648153,1469,-1434,-325
18.653153,1914,-1379,-506
18.657978,1994,-1054,-1304
18.662802,1281,-979,-2118
18.667802,1096,-1354,-1538
18.672626,1355,-1488,-233
18.677481,1439,-1215,-147
18.682481,1442,-1274,-781
18.687305,1428,-1600,-834
18.692129,1446,-1643,-352
18.697129,1508,-1641,244
18.701953,1542,-1618,503
18.706778,1490,-1556,285
18.711778,1410,-1581,57
18.716602,1376,-1561,124
18.721457,1358,-1506,230
18.726457,1330,-1491,228
18.731281,1319,-1499,112
18.736105,1319,-1536,-45
18.741105,1315,-1559,33
18.745929,1323,-1566,242
18.750754,1333,-1538,312
18.755754,1348,-1516,208
18.760578,1365,-1520,64
18.765432,1364,-1506,3
18.770432,1378,-1524,-63
18.775257,1383,-1509,-181
18.780081,1351,-1482,-245
18.785081,1362,-1516,-247
18.789905,1380,-1472,-256
18.794729,1373,-1438,-247
18.799729,1396,-1504,-213
18.804554,1398,-1518,-231
18.809408,1380,-1463,-229
18.814408,1374,-1440,-159
18.819233,1353,-1443,-129
18.824057,1315,-1368,-149
18.829057,1253,-1288,-145
18.833881,1223,-1290,-99
18.838705,1214,-1299,-84
18.843705,1196,-1247,-104
18.848529,1248,-1199,-104
18.853354,1296,-1274,-108
18.858354,1301,-1363,-133
18.863208,1337,-1395,-172
18.868033,1385,-1452,-181
18.873033,1430,-1490,-136
18.877857,1476,-1470,-90
18.882681,1471,-1457,-93
18.887681,1408,-1484,-111
18.892505,1364,-1497,-88
18.897329,1365,-1482,-95
18.902329,1378,-1472,-138
18.907154,1381,-1470,-161
18.911978,1376,-1500,-231
18.916978,1376,-1507,-275
18.921833,1389,-1486,-227
18.926657,1406,-1522,-197
18.931657,1421,-1547,-200
18.936481,1419,-1545,-202
18.941305,1381,-1556,-231
18.946305,1373,-1541,-222
18.951129,1398,-1504,-163
18.955954,1346,-1482,-172
18.960954,1314,-1497,-184
18.965778,1335,-1513,-152
18.970602,1346,-1524,-183
18.975602,1340,-1522,-211
18.980457,1294,-1504,-195
18.985281,1294,-1524,-200
18.990281,1326,-1522,-220
18.995105,1314,-1497,-236
18.999930,1294,-1511,-240
19.4930,1299,-1515,-247
19.9754,1305,-1491,-256
19.14578,1292,-1497,-222
19.19578,1312,-1516,-181
19.24402,1331,-1513,-211
19.29257,1308,-1499,-236
19.34257,1298,-1516,-236
19.39081,1330,-1506,-252
19.43905,1340,-1452,-225
19.48905,1321,-1490,-247
19.53730,1305,-1532,-315
19.58554,1315,-1509,-240
19.63554,1346,-1534,-156
19.68378,1321,-1534,-217
19.73202,1298,-1477,-275
19.78202,1292,-1459,-329
19.83057,1281,-1424,-393
19.87881,1301,-1313,-399
19.92881,1305,-1277,-388
19.97705,1296,-1363,-342
19.102530,1280,-1447,-286
19.107530,1258,-1499,-242
19.112354,1271,-1545,-202
19.117178,1306,-1540,-281
19.122178,1340,-1454,-340
19.127033,1340,-1424,-302
19.131857,1303,-1452,-327
19.136857,1298,-1409,-402
19.141681,1321,-1393,-475
19.146505,1319,-1449,-447
19.151505,1326,-1406,-281
19.156330,1353,-1386,-261
19.161184,1298,-1490,-472
19.166184,1273,-1499,-565
19.171009,1349,-1499,-399
19.175833,1330,-1602,-297
19.180833,1276,-1584,-377
19.185657,1314,-1507,-372
19.190481,1310,-1497,-363
19.195481,1278,-1432,-474
19.200336,1294,-1384,-456
19.205160,1312,-1399,-365
19.210160,1305,-1407,-392
19.214984,1321,-1402,-438
19.219809,1323,-1424,-413
19.224809,1305,-1431,-377
19.229663,1328,-1384,-363
19.234488,1317,-1411,-329
19.239488,1299,-1468,-308
19.244312,1348,-1452,-299
19.249136,1364,-1466,-290
19.254136,1323,-1491,-268
19.258960,1314,-1468,-243
19.263446,1355,-1499,-256
19.268698,1381,-1518,-286
19.273698,1383,-1461,-297
19.278522,1387,-1450,-308
19.283346,1383,-1454,-322
19.288346,1396,-1493,-277
19.293170,1405,-1538,-297
19.298025,1376,-1399,-363
19.303025,1376,-1290,-320
19.307849,1360,-1429,-359
19.312674,1296,-1500,-440
19.317674,1340,-1438,-377
19.322498,1406,-1456,-333
19.327322,1374,-1481,-333
19.332322,1333,-1481,-324
19.337146,1310,-1511,-347
19.342001,1337,-1490,-359
19.347001,1367,-1459,-354
19.351825,1353,-1474,-347
19.356649,1331,-1474,-334
19.361649,1317,-1466,-313
19.366474,1317,-1438,-283
19.371298,1315,-1425,-265
19.376298,1339,-1456,-293
19.381153,1330,-1463,-322
19.385977,1273,-1463,-284
19.390977,1280,-1461,-272
19.395801,1283,-1459,-311
19.400625,1267,-1463,-315
19.405625,1308,-1461,-318
19.410450,1339,-1466,-336
19.415274,1315,-1463,-324
19.420274,1289,-1465,-325
19.425098,1285,-1465,-340
19.429953,1301,-1452,-336
19.434953,1303,-1456,-338
19.439777,1298,-1459,-343
19.444601,1323,-1474,-347
19.449601,1339,-1481,-363
19.454425,1340,-1465,-372
19.459250,1333,-1459,-318
19.464250,1331,-1445,-329
19.469104,1355,-1440,-383
19.473929,1383,-1457,-354
19.478929,1381,-1441,-365
19.483753,1342,-1413,-411
19.488577,1348,-1466,-356
19.493577,1362,-1513,-334
19.498401,1331,-1477,-422
19.503225,1321,-1449,-427
19.508225,1323,-1450,-356
19.513080,1298,-1479,-324
19.517904,1264,-1515,-333
19.522904,1287,-1482,-333
19.527729,1342,-1434,-336
19.532553,1339,-1450,-345
19.537553,1299,-1445,-336
19.542377,1305,-1420,-338
19.547232,1308,-1461,-361
19.552232,1314,-1452,-338
19.557056,1344,-1402,-309
19.561880,1321,-1454,-367
19.566880,1310,-1454,-388
19.571704,1364,-1370,-358
19.576529,1396,-1379,-356
19.581529,1385,-1424,-365
19.586353,1355,-1440,-368
19.591177,1324,-1450,-338
19.596177,1315,-1450,-318
19.600663,1328,-1424,-297
19.605915,1314,-1429,-274
19.610739,1306,-1484,-306
19.615739,1321,-1509,-308
19.620563,1317,-1482,-265
19.625387,1330,-1457,-284
19.630387,1340,-1481,-333
19.635212,1331,-1463,-338
19.640066,1353,-1447,-347
19.645066,1358,-1491,-356
19.649890,1356,-1482,-333
19.654715,1387,-1465,-329
19.659715,1371,-1479,-331
19.664539,1330,-1454,-340
19.669363,1342,-1438,-363
19.674363,1380,-1466,-365
19.679187,1399,-1472,-359
19.684012,1389,-1477,-358
19.689012,1376,-1491,-322
19.693866,1387,-1481,-268
19.698691,1376,-1479,-249
19.703691,1380,-1452,-243
19.708515,1396,-1420,-270
19.713339,1349,-1452,-308
19.718339,1315,-1482,-288
19.723163,1339,-1497,-288
19.727987,1358,-1507,-329
19.732987,1339,-1506,-340
19.737842,1289,-1474,-363
19.742666,1292,-1440,-363
19.747666,1337,-1459,-343
19.752491,1326,-1486,-356
19.757315,1301,-1502,-340
19.762315,1335,-1507,-306
19.767139,1339,-1461,-297
19.771963,1319,-1407,-286
19.776963,1353,-1434,-297
19.781818,1342,-1506,-299
19.786642,1349,-1466,-283
19.791642,1390,-1406,-318
19.796466,1371,-1438,-356
19.801291,1344,-1450,-370
19.806291,1331,-1456,-379
19.811145,1339,-1445,-365
19.815970,1335,-1413,-356
19.820970,1330,-1440,-349
19.825794,1383,-1381,-338
19.830618,1419,-1309,-368
19.835618,1367,-1422,-368
19.840442,1276,-1479,-365
19.845266,1253,-1388,-386
19.850266,1310,-1374,-245
19.855121,1299,-1432,-309
19.859945,1271,-1479,-463
19.864945,1280,-1490,-340
19.869770,1294,-1425,-329
19.874594,1323,-1445,-324
19.879594,1278,-1495,-274
19.884418,1271,-1438,-295
19.889242,1360,-1429,-274
19.894242,1342,-1463,-274
19.899066,1312,-1427,-292
19.903921,1362,-1431,-343
19.908921,1376,-1450,-363
19.913745,1383,-1411,-293
19.918570,1376,-1424,-306
19.923570,1376,-1461,-343
19.928394,1406,-1445,-293
19.933218,1383,-1431,-288
19.938218,1365,-1463,-331
19.943042,1380,-1475,-308
19.947867,1365,-1461,-281
19.952867,1358,-1447,-317
19.957721,1353,-1438,-324
19.962545,1380,-1416,-279
19.967545,1415,-1411,-311
19.972370,1392,-1441,-358
19.977194,1385,-1429,-315
19.982194,1383,-1404,-315
19.987018,1346,-1445,-329
19.991842,1326,-1459,-292
19.996842,1324,-1413,-238
20.1697,1324,-1375,-218
20.6153,1310,-1368,-297
20.11066,1303,-1422,-311
20.16287,1340,-1484,-243
20.21287,1360,-1490,-288
20.26111,1339,-1488,-324
20.30935,1315,-1443,-318
20.35935,1328,-1347,-367
20.40760,1374,-1386,-324
20.45614,1360,-1474,-293
20.50614,1330,-1507,-374
20.55439,1389,-1550,-383
20.60263,1396,-1545,-367
20.65263,1362,-1463,-367
20.70087,1394,-1361,-359
20.74911,1385,-1386,-406
20.79911,1381,-1431,-418
20.84735,1412,-1482,-358
20.89590,1378,-1543,-329
20.94590,1348,-1486,-379
20.99414,1367,-1454,-418
20.104239,1367,-1465,-420
20.109239,1333,-1434,-408
20.114063,1315,-1425,-361
20.118887,1310,-1454,-352
20.123887,1306,-1470,-363
20.128711,1319,-1466,-336
20.133535,1330,-1457,-325
20.138535,1317,-1409,-340
20.143390,1314,-1386,-374
20.148214,1355,-1418,-425
20.153214,1365,-1420,-429
20.158039,1358,-1404,-417
20.162863,1360,-1404,-440
20.167863,1351,-1404,-431
20.172687,1339,-1397,-418
20.177511,1310,-1365,-440
20.182511,1328,-1374,-449
20.187336,1364,-1415,-429
20.192190,1330,-1404,-417
20.197190,1319,-1382,-429
20.202014,1389,-1366,-400
20.206839,1403,-1340,-343
20.211839,1353,-1370,-367
20.216663,1349,-1436,-395
20.221487,1358,-1465,-377
20.226487,1355,-1463,-334
20.231311,1378,-1431,-327
20.236136,1383,-1420,-342
20.241136,1356,-1411,-320
20.245990,1346,-1377,-338
20.250815,1367,-1375,-361
20.255815,1378,-1406,-334
20.260639,1389,-1436,-308
20.265463,1383,-1384,-338
20.270463,1387,-1322,-347
20.275287,1414,-1441,-308
20.280142,1399,-1482,-354
20.285142,1390,-1379,-372
20.289966,1378,-1395,-350
20.294790,1374,-1391,-345
20.299790,1390,-1388,-340
20.304615,1365,-1429,-370
20.309439,1389,-1399,-352
20.314439,1408,-1382,-283
20.319263,1390,-1404,-304
20.324118,1399,-1397,-367
20.329118,1367,-1352,-249
20.333942,1381,-1370,-240
20.338766,1414,-1432,-375
20.343766,1410,-1407,-313
20.348590,1433,-1375,-249
20.353415,1399,-1427,-265
20.358415,1387,-1432,-268
20.363269,1412,-1361,-288
20.368094,1351,-1340,-317
20.373094,1335,-1345,-329
20.377918,1364,-1381,-393
20.382742,1369,-1352,-333
20.387742,1371,-1165,-45
20.392566,1348,-1166,-217
20.397390,1323,-1416,-608
20.402390,1331,-1575,-450
20.407245,1364,-1522,-217
20.412069,1398,-1406,-245
20.417069,1408,-1411,-372
20.421894,1398,-1450,-472
20.426718,1406,-1436,-411
20.431718,1396,-1425,-349
20.436542,1351,-1420,-408
20.441397,1351,-1377,-374
20.446397,1389,-1315,-286
20.451221,1339,-1338,-409
20.456045,1231,-1452,-500
20.461045,1253,-1472,-383
20.465869,1342,-1413,-331
20.470694,1381,-1427,-358
20.475694,1399,-1479,-377
20.480548,1399,-1493,-418
20.485373,1396,-1432,-449
20.490373,1367,-1382,-450
20.495197,1321,-1395,-436
20.500021,1323,-1399,-429
20.505021,1360,-1393,-465
20.509845,1380,-1399,-497
20.514670,1376,-1375,-429
20.519670,1373,-1395,-386
20.524524,1367,-1466,-393
20.529348,1374,-1450,-331
20.534348,1378,-1370,-329
20.539173,1387,-1336,-372
20.543997,1401,-1368,-340
20.548997,1369,-1413,-327
20.553821,1346,-1459,-354
20.558645,1346,-1482,-370
20.563645,1339,-1452,-372
20.568500,1335,-1425,-356
20.573324,1299,-1445,-361
20.578324,1319,-1450,-425
20.583149,1392,-1415,-424
20.587973,1380,-1400,-367
20.592973,1364,-1402,-395
20.597459,1390,-1384,-413
20.602680,1383,-1391,-388
20.607535,1365,-1427,-390
20.612535,1360,-1424,-365
20.617359,1356,-1415,-356
20.622183,1348,-1436,-381
20.627183,1349,-1432,-393
20.632007,1360,-1409,-375
20.636831,1344,-1425,-374
20.641831,1337,-1459,-417
20.646686,1349,-1441,-447
20.651510,1348,-1375,-399
20.656510,1340,-1350,-384
20.661335,1353,-1386,-447
20.666159,1389,-1384,-440
20.671159,1410,-1402,-404
20.675983,1390,-1447,-392
20.680807,1358,-1434,-370
20.685807,1367,-1443,-392
20.690662,1369,-1445,-413
20.695486,1339,-1413,-384
20.700486,1315,-1402,-372
20.705310,1331,-1400,-377
20.710135,1383,-1400,-359
20.715135,1396,-1411,-374
20.719959,1337,-1418,-361
20.724811,1362,-1465,-399
20.729328,1374,-1427,-431
20.734211,1167,-1286,-199
20.739124,1180,-1341,-159
20.744007,1390,-1459,-415
20.748889,1353,-1438,-400
20.753772,1333,-1409,-325
20.758655,1421,-1415,-475
20.763538,1264,-1400,-200
20.768421,1462,-1450,-488
20.773304,1915,-1559,-1461
20.778186,1533,-1443,-747
20.783100,1203,-1338,-17
20.787983,1396,-1457,-472
20.792865,1390,-1497,-350
20.797748,1330,-1482,-165
20.802631,1373,-1484,-370
20.807514,1348,-1402,-468
20.812397,1278,-1341,-400
20.817279,1296,-1388,-381
20.822193,1330,-1429,-420
20.827076,1356,-1404,-406
20.831958,1387,-1402,-411
20.836841,1381,-1418,-413
20.841724,1376,-1404,-399
20.846607,1373,-1404,-386
20.851490,1342,-1422,-374
20.856372,1335,-1409,-368
20.861255,1362,-1409,-363
20.866169,1367,-1441,-372
20.871051,1376,-1445,-392
20.875934,1355,-1391,-450
20.880817,1290,-1343,-449
20.885700,1326,-1363,-374
20.890583,1431,-1413,-449
20.895465,1424,-1436,-513
20.900348,1373,-1427,-433
20.905231,1376,-1413,-408
20.910144,1387,-1422,-402
20.915027,1367,-1434,-392
20.919910,1330,-1440,-402
20.924793,1328,-1447,-388
20.929676,1331,-1411,-400
20.934558,1335,-1393,-384
20.939441,1367,-1413,-338
20.944324,1365,-1391,-402
20.949207,1339,-1368,-484
20.954120,1340,-1377,-495
20.959003,1406,-1418,-461
20.963886,1406,-1416,-434
20.968769,1328,-1370,-425
20.973651,1348,-1399,-343
20.978534,1373,-1422,-300
20.983417,1369,-1411,-377
20.988300,1381,-1411,-418
20.993183,1365,-1406,-377
20.998096,1380,-1402,-361
21.2979,1365,-1397,-384
21.7862,1331,-1407,-379
21.12744,1335,-1431,-367
21.17627,1344,-1416,-397
21.22510,1439,-1465,-425
21.27393,1444,-1495,-358
21.32276,1276,-1366,-340
21.37159,1294,-1357,-422
21.42072,1403,-1447,-415
21.46955,1394,-1429,-368
21.52176,1381,-1422,-356
21.57176,1360,-1404,-343
21.62000,1367,-1377,-352
21.66824,1403,-1400,-370
21.71824,1406,-1407,-363
21.76648,1412,-1388,-361
21.81503,1412,-1386,-395
21.86503,1433,-1422,-395
21.91327,1451,-1482,-336
21.96151,1440,-1531,-333
21.101151,1421,-1391,-333
21.105976,1373,-1382,-252
21.110800,1401,-1606,-343
21.115800,1446,-1597,-409
21.120624,1408,-1611,-284
21.125479,1449,-1559,-306
21.130479,1426,-1104,-467
21.135303,1276,-1070,-593
21.140127,1264,-1409,-508
21.145127,1306,-1402,-333
21.149951,1285,-1407,-338
21.154776,1330,-1484,-388
21.159776,1358,-1449,-379
21.164600,1339,-1429,-342
21.169424,1365,-1404,-342
21.174424,1385,-1341,-400
21.179279,1364,-1288,-418
21.184103,1319,-1309,-415
21.189103,1314,-1347,-413
21.193927,1294,-1325,-436
21.198752,1258,-1324,-479
21.203752,1296,-1327,-459
21.208576,1308,-1288,-461
21.213431,1287,-1300,-490
21.218431,1331,-1343,-506
21.223255,1355,-1341,-517
21.228079,1337,-1361,-465
21.233079,1342,-1374,-413
21.237903,1349,-1350,-427
21.242727,1383,-1356,-438
21.247727,1349,-1388,-449
21.252552,1312,-1404,-472
21.257406,1381,-1366,-452
21.262406,1396,-1352,-443
21.267231,1356,-1399,-463
21.272055,1358,-1406,-459
21.277055,1360,-1402,-443
21.281879,1349,-1406,-433
21.286703,1344,-1416,-468
21.291703,1367,-1402,-461
21.296527,1364,-1343,-397
21.301382,1312,-1366,-404
21.306382,1337,-1438,-404
21.311206,1399,-1461,-361
21.316031,1423,-1454,-361
21.321031,1435,-1441,-375
21.325855,1428,-1436,-359
21.330679,1419,-1424,-358
21.335679,1435,-1411,-365
21.340534,1435,-1388,-367
21.345358,1417,-1386,-406
21.350358,1394,-1379,-400
21.355182,1367,-1357,-379
21.360006,1396,-1393,-422
21.365006,1444,-1406,-443
21.369831,1423,-1366,-447
21.374655,1371,-1361,-418
21.379655,1383,-1393,-352
21.384510,1423,-1411,-359
21.389334,1448,-1374,-409
21.394334,1431,-1365,-420
21.399158,1403,-1393,-375
21.403982,1433,-1391,-331
21.408982,1440,-1388,-406
21.413806,1417,-1381,-499
21.418631,1415,-1374,-449
21.423631,1435,-1357,-406
21.428485,1448,-1320,-456
21.433310,1399,-1388,-447
21.438310,1380,-1445,-397
21.443134,1398,-1375,-415
21.447958,1410,-1354,-474
21.452958,1439,-1350,-522
21.457782,1442,-1359,-483
21.462607,1442,-1399,-431
21.467607,1476,-1349,-477
21.472461,1524,-1315,-492
21.477285,1519,-1381,-424
21.482285,1499,-1395,-415
21.487110,1505,-1363,-434
21.491934,1474,-1366,-447
21.496934,1456,-1338,-534
21.501420,1453,-1324,-583
21.506671,1415,-1345,-543
21.511496,1430,-1372,-520
21.516496,1476,-1422,-513
21.521320,1501,-1456,-525
21.526144,1512,-1454,-568
21.531144,1512,-1479,-579
21.535968,1553,-1486,-599
21.540793,1624,-1507,-529
21.545793,1731,-1593,-320
21.550647,1821,-1599,-259
21.555472,1749,-1482,-365
21.560472,1571,-1284,-542
21.565296,1465,-1158,-586
21.570120,1448,-1156,-434
21.575120,1412,-1174,-440
21.579944,1351,-1234,-467
21.584768,1351,-1350,-436
21.589768,1399,-1482,-502
21.594760,1437,-1563,-538
21.599124,1476,-1609,-545
21.604345,1512,-1657,-543
21.609345,1533,-1686,-506
21.614169,1573,-1682,-481
21.618993,1583,-1654,-477
21.623993,1585,-1643,-475
21.628817,1626,-1615,-449
21.633672,1653,-1557,-408
21.638672,1653,-1570,-365
21.643496,1656,-1577,-329
21.648321,1671,-1554,-313
21.653321,1685,-1613,-340
21.658145,1680,-1657,-374
21.662969,1664,-1672,-340
21.667969,1687,-1690,-340
21.672793,1698,-1649,-361
21.677648,1687,-1629,-284
21.682648,1705,-1638,-243
21.687472,1710,-1627,-263
21.692296,1694,-1616,-242
21.697296,1664,-1615,-215
21.702121,1648,-1607,-197
21.706945,1639,-1579,-174
21.711945,1571,-1552,-147
21.716769,1533,-1565,-142
21.721624,1564,-1586,-122
21.726624,1564,-1550,-83
21.731448,1544,-1522,-77
21.736272,1539,-1565,-29
21.741272,1533,-1611,-20
21.746097,1533,-1624,-84
21.750921,1581,-1631,-75
21.755921,1623,-1666,-102
21.760745,1644,-1706,-168
21.765600,1740,-1681,-136
21.770600,1819,-1616,-108
21.775424,1810,-1570,-97
21.780248,1805,-1538,-43
21.785248,1790,-1516,-31
21.790072,1773,-1486,-27
21.794897,1801,-1463,21
21.799897,1819,-1474,33
21.804751,1824,-1520,-17
21.809576,1851,-1588,-54
21.814576,1871,-1556,-22
21.819400,1889,-1491,28
21.824224,1883,-1491,71
21.829224,1828,-1477,112
21.834048,1758,-1484,96
21.838872,1730,-1456,96
21.843872,1703,-1377,144
21.848697,1685,-1382,121
21.853551,1694,-1411,91
21.858551,1735,-1391,126
21.863376,1808,-1349,144
21.868200,1842,-1302,158
21.873200,1847,-1288,171
21.878024,1844,-1254,180
21.882848,1821,-1227,217
21.887848,1846,-1261,221
21.892672,1851,-1263,196
21.897527,1776,-1263,192
21.902527,1748,-1254,210
21.907351,1749,-1227,244
21.912176,1717,-1229,301
21.917176,1676,-1211,357
21.922000,1655,-1191,360
21.926824,1667,-1199,373
21.931824,1683,-1191,382
21.936648,1706,-1120,324
21.941503,1731,-1029,316
21.946503,1687,-1020,367
21.951327,1614,-1022,366
21.956151,1590,-1006,346
21.961151,1553,-1024,357
21.965976,1487,-991,355
21.970800,1458,-890,366
21.975800,1464,-836,351
21.980624,1485,-833,308
21.985479,1528,-756,360
21.990479,1580,-675,378
21.995303,1619,-649,324
22.127,1687,-604,337
22.5127,1780,-577,355
22.9951,1814,-568,369
22.14776,1819,-559,341
22.19776,1876,-536,310
22.24600,1926,-488,358
22.29424,1928,-445,346
22.34424,1939,-440,289
22.39279,1978,-438,283
22.44103,2028,-397,274
22.49103,2040,-349,253
22.53927,2022,-309,267
22.58752,2003,-297,294
22.63752,1972,-272,319
22.68576,1953,-220,337
22.73400,1958,-184,335
22.78400,1965,-149,348
22.83255,1949,-108,371
22.88079,1921,-99,392
22.93079,1924,-117,449
22.97903,1908,-129,519
22.102727,1835,-95,535
22.107727,1815,-49,532
22.112552,1828,-47,558
22.117376,1849,-34,564
22.122376,1876,-74,574
22.127200,1878,-143,601
22.132024,1931,-145,566
22.137024,1996,-117,612
22.141879,1997,-92,696
22.146703,1976,-131,703
22.151703,1967,-167,732
22.156527,1962,-163,742
22.161352,1951,-206,737
22.166352,1949,-158,737
22.171176,1942,-58,724
22.176031,1899,-88,774
22.181031,1883,-129,778
22.185855,1880,-88,715
22.190679,1864,-34,698
22.195679,1871,-25,689
22.200503,1874,-59,671
22.205327,1862,-58,639
22.210327,1878,-9,655
22.215152,1883,5,690
22.220006,1821,8,690
22.225006,1774,14,685
22.229831,1762,-9,678
22.234655,1723,-24,690
22.239655,1667,1,715
22.244479,1628,19,714
22.249303,1619,-20,739
22.254303,1581,-50,794
22.259158,1539,-52,794
22.263982,1567,-70,774
22.268982,1573,-88,765
22.273806,1531,-108,760
22.278631,1551,-111,787
22.283631,1555,-138,778
22.288117,1521,-183,737
22.293338,1560,-165,762
22.298162,1565,-122,751
22.303162,1514,-129,669
22.308017,1521,-133,632
22.312841,1505,-74,608
22.317841,1471,-11,573
22.322665,1483,-31,612
22.327489,1521,0,624
22.332489,1517,135,541
22.337314,1506,124,501
22.342138,1589,39,462
22.347138,1642,69,430
22.351993,1658,101,437
22.356817,1728,98,396
22.361817,1783,132,387
22.366641,1815,149,383
22.371465,1823,105,301
22.376465,1831,85,260
22.381289,1835,98,274
22.386144,1798,94,282
22.391144,1803,78,266
22.395968,1805,67,251
22.400793,1769,78,280
22.405793,1723,83,305
22.410617,1673,33,307
22.415441,1653,-8,307
22.420441,1635,5,342
22.425265,1592,3,387
22.430089,1539,-29,385
22.435089,1523,-34,387
22.439944,1530,-15,374
22.444768,1535,-11,376
22.449768,1540,-36,382
22.454593,1528,-52,362
22.459417,1508,-45,353
22.464417,1528,-42,324
22.469241,1569,-29,294
22.474096,1560,-15,258
22.479096,1564,-11,217
22.483920,1599,-2,191
22.488744,1633,55,183
22.493744,1667,119,183
22.498568,1665,116,119
22.503393,1665,107,39
22.508393,1705,144,-9
22.513217,1712,198,-34
22.518072,1719,262,-27
22.523072,1765,321,-47
22.527896,1780,374,-54
22.532720,1778,401,-36
22.537720,1789,417,-22
22.542544,1821,453,-11
22.547368,1874,460,-50
22.552368,1878,403,-93
22.557193,1867,349,-93
22.562047,1919,383,-83
22.567047,1956,376,-97
22.571872,1981,307,-104
22.576696,2031,296,-95
22.581696,2058,310,-59
22.586520,2072,314,1
22.591344,2065,303,-38
22.596344,2060,283,-65
22.600830,2090,257,-61
22.606051,2096,255,-174
22.610906,2083,283,-236
22.615906,2099,294,-236
22.620730,2080,321,-254
22.625555,1996,364,-247
22.630555,1930,389,-250
22.635379,1881,433,-240
22.640203,1810,460,-233
22.645203,1803,482,-265
22.650058,1783,551,-265
22.654882,1701,564,-268
22.659882,1689,514,-313
22.664706,1694,503,-367
22.669530,1721,516,-395
22.674530,1798,480,-434
22.679355,1862,448,-499
22.684179,1930,428,-579
22.689179,2044,382,-663
22.694034,2169,357,-734
22.698858,2256,335,-840
22.703858,2347,296,-966
22.708682,2408,298,-1047
22.713506,2421,341,-1091
22.718506,2453,371,-1134
22.723330,2449,426,-1152
22.728155,2390,524,-1131
22.733155,2322,589,-1127
22.737979,2260,655,-1147
22.742834,2214,732,-1175
22.747834,2174,773,-1184
22.752658,2165,807,-1193
22.757482,2149,810,-1213
22.762482,2078,785,-1193
22.767306,1996,751,-1188
22.772130,1901,742,-1174
22.777130,1830,746,-1166
22.781955,1803,707,-1179
22.786809,1748,651,-1116
22.791809,1692,601,-1111
22.796634,1642,553,-1161
22.801458,1589,521,-1115
22.806458,1567,526,-1054
22.811282,1537,541,-1027
22.816106,1483,491,-972
22.821106,1455,467,-915
22.825931,1428,487,-931
22.830785,1415,444,-908
22.835785,1456,403,-847
22.840609,1503,387,-858
22.845434,1526,344,-833
22.850434,1542,307,-804
22.855258,1576,274,-847
22.860082,1614,230,-884
22.865082,1653,233,-891
22.869937,1685,255,-904
22.874761,1671,214,-952
22.879761,1665,189,-997
22.884585,1669,224,-1011
22.889410,1639,271,-995
22.894410,1592,285,-1016
22.899234,1535,296,-1066
22.904088,1517,330,-1047
22.909088,1485,328,-1052
22.913913,1392,307,-1084
22.918737,1335,342,-1065
22.923737,1306,351,-1061
22.928561,1223,310,-1072
22.933385,1137,349,-1084
22.938385,1098,387,-1097
22.943210,1048,369,-1093
22.948064,953,401,-1052
22.953064,815,414,-1027
22.957889,696,373,-1006
22.962713,624,412,-872
22.967713,537,460,-779
22.972537,498,467,-747
22.977361,546,498,-663
22.982361,576,530,-640
22.987216,621,508,-702
22.992040,714,473,-756
22.997040,810,460,-815
23.1864,889,437,-897
23.6689,958,449,-979
23.11689,996,457,-1091
23.16513,1012,457,-1170
23.21337,1064,551,-1188
23.26337,1105,644,-1243
23.31192,1098,719,-1307
23.36016,1082,842,-1350
23.41016,1069,951,-1409
23.45840,1055,1021,-1343
23.50664,998,1089,-1361
23.55664,803,1180,-1750
23.60489,658,1305,-1873
23.65313,687,1417,-1665
23.70313,646,1494,-1582
23.75168,567,1501,-1525
23.79992,562,1423,-1559
23.84992,537,1344,-1607
23.89816,578,1315,-1538
23.94302,692,1296,-1507
23.99523,703,1267,-1529
23.104523,699,1224,-1554
23.109347,832,1169,-1582
23.114202,965,1155,-1599
23.119202,1028,1115,-1625
23.124026,1074,1076,-1656
23.128850,1117,1149,-1625
23.133850,1246,1142,-1634
23.138675,1435,1090,-1656
23.143499,1473,1137,-1641
23.148499,1449,1089,-1707
23.153323,1540,1028,-1718
23.158178,1526,1042,-1631
23.163178,1387,996,-1616
23.168002,1340,1001,-1482
23.172826,1349,1049,-1275
23.177826,1355,1007,-1381
23.182650,1426,910,-1382
23.187475,1608,842,-1245
23.192475,1674,876,-1263
23.197299,1556,932,-1177
23.202154,1555,946,-1193
23.207154,1606,965,-1247
23.211978,1590,948,-1100
23.216802,1614,926,-1093
23.221802,1669,923,-1152
23.226626,1719,932,-1084
23.231451,1735,944,-1029
23.236451,1715,953,-990
23.241275,1689,969,-952
23.246129,1669,967,-863
23.251129,1674,964,-781
23.255954,1710,958,-768
23.260778,1805,912,-725
23.265778,1931,905,-666
23.270602,2035,953,-609
23.275426,2105,799,-592
23.280426,2058,773,-517
23.285251,1978,760,-402
23.290105,2035,208,-406
23.295105,2030,417,-297
23.299930,1958,905,-175
23.304754,2015,392,-174
23.309754,1987,239,-56
23.314578,1935,399,16
23.319402,2199,282,-6
23.324402,2480,291,-4
23.329257,2421,269,-8
23.334081,2364,189,8
23.339081,2458,207,-20
23.343905,2440,273,-45
23.348730,2281,376,19
23.353730,2119,414,32
23.358554,1994,373,28
23.363378,1880,432,96
23.368378,1751,508,128
23.373233,1623,512,99
23.378057,1556,562,62
23.383057,1476,682,55
23.387881,1380,726,89
23.392705,1337,639,82
23.397705,1335,630,24
23.402530,1364,648,7
23.407354,1408,658,-154
23.412354,1524,840,-361
23.417209,1603,828,-302
23.422033,1560,551,-204
23.427033,1498,357,-70
23.431857,1449,521,-4
23.436681,1392,1064,-9
23.441681,1317,1192,139
23.446505,1508,749,-102
23.451330,1740,587,-381
23.456330,1249,839,-106
23.461154,926,798,333
23.466009,1469,621,660
23.471009,1590,608,644
23.475833,2005,564,235
23.480657,3133,544,-447
23.485657,2749,283,-299
23.490481,1708,283,560
23.495306,1610,715,544
23.500306,1623,717,287
23.505160,1515,505,319
23.509984,1496,478,257
23.514984,1506,480,253
23.519809,1528,442,221
23.524633,1551,369,189
23.529633,1515,305,158
23.534457,1483,260,69
23.539281,1546,217,32
23.544281,1624,149,-29
23.549136,1696,53,-109
23.553960,1762,-15,-200
23.558960,1817,21,-204
23.563785,1828,103,-208
23.568609,1812,183,-542
23.573609,1856,280,-472
23.578433,1821,432,-29
23.583288,1635,580,3
23.588288,1506,730,80
23.593112,1381,896,-202
23.597598,1292,689,-268
23.602819,1389,673,432
23.607819,1415,960,99
23.612643,1574,837,-331
23.617467,1714,1067,-640
23.622467,1381,1199,-1659
23.627322,1237,976,-1166
23.632146,1355,1223,55
23.637146,1312,1094,-138
23.641971,1280,807,-609
23.646795,1296,908,-349
23.651795,1355,724,-38
23.656619,1421,596,124
23.661443,1548,442,537
23.666443,1769,-58,892
23.671298,1785,130,553
23.676122,1769,619,85
23.681122,1912,726,248
23.685946,1944,899,394
23.690771,1949,1053,198
23.695771,2022,1001,-33
23.700595,2053,874,-142
23.705419,2071,812,-36
23.710419,2112,790,149
23.715274,2133,749,228
23.720098,2101,708,207
23.725098,2064,676,167
23.729922,2074,657,155
23.734746,2074,657,146
23.739746,2024,649,101
23.744571,1989,628,19
23.749425,1992,630,-49
23.754425,1964,617,-42
23.759250,1910,608,7
23.764074,1946,576,112
23.769074,2042,482,216
23.773898,2055,519,153
23.778722,2110,362,360
23.783722,2228,82,614
23.788546,2169,376,321
23.793401,2094,714,244
23.798401,2146,810,407
23.803225,2160,983,274
23.808050,2110,1074,67
23.813050,2069,1108,-100
23.817874,2051,1071,-192
23.822698,1871,1008,-202
23.827698,1617,1032,-111
23.832522,1639,949,107
23.837347,1698,792,169
23.842347,1594,687,-77
23.847171,1574,615,-229
23.852025,1626,648,-68
23.857025,1658,674,123
23.861850,1696,640,169
23.866674,1723,667,149
23.871674,1762,649,80
23.876498,1862,662,71
23.881322,1956,715,255
23.886322,1994,739,207
23.891147,2055,855,251
23.895971,1987,387,146
23.900971,1631,262,-1183
23.905795,1360,1696,-1524
23.910281,1567,2397,348
23.915533,1996,1240,2071
23.920533,2112,-67,2258
23.925357,1933,-95,1435
23.930181,1749,541,860
23.935181,1662,799,733
23.940005,1671,858,551
23.944829,1674,848,278
23.949829,1676,817,191
23.954654,1703,655,428
23.959508,1667,471,648
23.964508,1655,491,635
23.969333,1739,580,517
23.974157,1810,783,457
23.979157,1814,1058,496
23.983981,1812,1230,399
23.988805,1847,1203,417
23.993805,1849,1078,790
23.998629,1835,1089,835
24.3454,1926,1069,610
24.8454,2010,1028,603
24.13308,1996,1051,699
24.18133,1951,932,765
24.23133,1896,819,537
24.27957,1872,748,307
24.32781,1881,494,705
24.37781,1781,235,1132
24.42605,1633,357,917
24.47430,1610,714,674
24.52430,1644,765,694
24.57284,1626,573,667
24.62108,1580,566,821
24.67108,1546,719,1092
24.71933,1553,812,948
24.76757,1590,846,594
24.81757,1601,889,530
24.86581,1555,924,633
24.91405,1499,948,708
24.96405,1505,951,837
24.101260,1530,937,840
24.106084,1514,944,632
24.111084,1542,928,530
24.115909,1528,937,596
24.120733,1462,1037,698
24.125733,1471,1037,685
24.130557,1460,1015,587
24.135381,1399,1053,594
24.140381,1378,1001,621
24.145236,1349,953,589
24.150060,1351,923,737
24.155060,1408,803,914
24.159884,1385,776,785
24.164709,1378,832,626
24.169709,1337,776,730
24.174533,1562,651,1107
24.179357,1549,792,471
24.184357,449,1135,414
24.189212,203,933,1640
24.194036,887,823,742
24.199036,882,923,74
24.203860,824,657,648
24.208684,789,773,448
24.213684,582,987,494
24.218509,557,985,541
24.223333,651,1115,426
24.228333,701,1260,594
24.233157,737,1308,673
24.238012,807,1262,599
24.243012,890,1239,573
24.247836,932,1381,537
24.252660,919,1612,655
24.257660,957,1656,862
24.262484,1023,1528,810
24.267309,1067,1573,830
24.272309,1110,1656,894
24.277133,1199,1471,880
24.281957,1306,1315,1067
24.286957,1405,1255,1032
24.291812,1506,1367,705
24.296636,1573,1442,790
24.301636,1448,1212,1198
24.306460,1208,1714,985
24.311285,1098,2015,455
24.316285,996,1567,549
24.321109,1130,1689,546
24.325933,1267,1490,71
