;Title, http://www.gcdataconcepts.com, x16-1d, ADXL345
;Version, 1877, Build date, Jan  8 2020,  SN:CCDC4016ECDDBE3
;Start_time, 2022-11-16, 00:19:30.482
;Uptime, 4,sec,  Vbat, 1430, mv, EOL, 1100, mv
;SampleRate, 200,Hz
;Deadband, 0, counts
;DeadbandTimeout, 15.000,sec
;Time, Ax, Ay, Az
0.77301,-350,1058,-2736
0.82156,-540,608,-5196
0.87010,-124,589,-6087
0.92010,114,367,-3036
0.96865,69,180,-4652
0.101720,260,67,-6591
0.106720,112,-318,-3423
0.111605,92,-383,-4493
0.116460,191,-1133,-7107
0.121460,28,-1302,-4396
0.126315,-43,-1152,-4113
0.131169,7,-1997,-5807
0.136169,-125,-1768,-4321
0.141024,-336,-2313,-4671
0.145879,-325,-2747,-5500
0.150879,-134,-1411,-3223
0.155734,-186,-2125,-3064
0.160588,-377,-3239,-4721
0.165588,-67,-1424,-3179
0.170443,235,-1672,-1334
0.175298,-61,-3802,-3359
0.180298,-240,-1718,-2891
0.185183,-22,-1718,-586
0.190038,21,-3530,-2757
0.195038,-115,-1511,-2315
0.199893,-95,-2031,228
0.204747,-47,-2729,-1586
0.209747,-270,-1256,-1877
0.214602,-536,-2352,364
0.219457,-425,-2286,-304
0.224457,-183,-1256,-1229
0.229311,-100,-1843,-142
0.234166,-83,-1257,189
0.239166,-118,-1133,-183
0.244021,-149,-1349,-43
0.248876,-17,-636,-295
0.253876,-143,-886,-659
0.258730,-343,-734,-420
0.263616,46,-195,-117
0.268616,116,-174,-161
0.273470,103,-406,-850
0.278325,458,-188,-740
0.283325,346,416,-163
0.288180,191,305,-459
0.293035,176,244,-663
0.298035,164,73,-1374
0.302889,28,292,-1266
0.307744,-372,937,-824
0.312744,-459,1717,-756
0.317599,-217,1356,-329
0.322454,-356,296,-2806
0.327454,-213,1394,-3089
0.332308,539,2303,-727
0.337194,655,2124,-2027
0.342194,376,1189,-2084
0.347048,201,337,-2350
0.351903,142,1224,-4123
0.356903,8,1594,-2997
0.361758,-604,1212,-3145
0.366612,-613,1680,-4273
0.371612,-297,1587,-3727
0.376467,-322,380,-3788
0.381322,1,544,-5145
0.386322,208,758,-4536
0.391177,226,207,-4325
0.396031,249,55,-5752
0.401031,71,-331,-4120
0.405886,64,-529,-4584
0.410771,141,-804,-5966
0.415771,-24,-1052,-4845
0.420626,-117,-1502,-5234
0.425481,-172,-1836,-4928
0.430481,-402,-1565,-4189
0.435336,-406,-2284,-5516
0.440190,-224,-2513,-5364
0.445190,-72,-1200,-2875
0.450045,-56,-1745,-2988
0.454900,-270,-3163,-4288
0.459900,-90,-2811,-3673
0.464755,198,-1290,-2279
0.469609,-136,-2116,-1391
0.474609,-375,-3932,-3291
0.479464,-229,-1374,-2927
0.484319,-86,-1474,-297
0.489319,-36,-3745,-2018
0.494174,-213,-1588,-2390
0.499028,-217,-1211,-288
0.504028,-67,-2529,-902
0.508914,-183,-2140,-1091
0.513768,-127,-1682,-479
0.518768,80,-1591,-558
0.523254,76,-1736,-229
0.528506,51,-1456,-142
0.533361,-109,-1291,-125
0.538361,-290,-1356,128
0.543215,-45,-854,-161
0.548070,119,-918,-634
0.553070,-283,-791,-149
0.557955,-313,-234,89
0.562810,105,-358,-125
0.567810,-125,-68,-238
0.572665,-154,-474,-1079
0.577519,344,-295,-729
0.582519,171,919,469
0.587374,-199,487,33
0.592229,23,58,-911
0.597229,251,280,-1131
0.602084,155,391,-925
0.606938,71,744,-1186
0.611938,160,1217,-936
0.616793,282,1253,-533
0.621648,-190,1205,-2268
0.626648,-350,1426,-2377
0.631503,255,1817,-1109
0.636357,112,2010,-2022
0.641357,-125,1337,-2027
0.646212,-15,1346,-2657
0.651067,-159,1410,-3220
0.656067,-240,1173,-2700
0.660922,-309,1721,-3691
0.665776,-229,1239,-2941
0.670776,-390,810,-3629
0.675662,-404,1164,-5027
0.680516,141,892,-3620
0.685516,278,474,-4216
0.690371,166,137,-4711
0.695226,180,157,-4616
0.700226,212,64,-4952
0.705081,144,-317,-4327
0.709935,-50,-549,-5423
0.714935,-90,-1075,-5836
0.719790,-199,-1300,-4425
0.724645,-368,-1116,-4205
0.729645,-342,-1581,-4789
0.734499,-375,-2204,-5339
0.739354,-193,-1682,-4384
0.744354,103,-1593,-3473
0.749209,60,-2165,-3818
0.754064,-22,-2000,-3120
0.759064,-34,-2813,-3097
0.763918,-63,-2866,-3811
0.768773,1,-1309,-2072
0.773773,-81,-2523,-1691
0.778628,-300,-3227,-3413
0.783513,-265,-1520,-1854
0.788513,-67,-2138,-1024
0.793368,49,-2413,-2082
0.798223,58,-1888,-1088
0.803223,1,-2281,-766
0.808077,-131,-1634,-1177
0.812932,-263,-1954,-204
0.817932,-245,-2466,-65
0.822449,-111,-1391,-815
0.827331,-2,-1556,-270
0.832245,-63,-1747,396
0.837496,-292,-993,33
0.842351,-347,-1491,-47
0.847351,-129,-1058,360
0.852206,37,-238,-322
0.857060,16,-1232,-997
0.862060,-175,-688,-83
0.866915,-118,264,648
0.871770,-86,-217,166
0.876770,-234,-442,-766
0.881625,53,-222,-704
0.886479,183,423,80
0.891479,74,471,-9
0.896334,42,373,-242
0.901189,137,33,-1002
0.906189,189,171,-1265
0.911074,-240,1242,-247
0.915929,-320,1262,-250
0.920929,21,1132,-863
0.925784,-229,787,-2109
0.930638,-168,1015,-2088
0.935638,462,2342,-777
0.940493,435,1905,-1506
0.945348,308,1208,-1995
0.950348,258,1317,-1822
0.955203,-224,1387,-3038
0.960057,-361,1519,-3022
0.965057,-308,1299,-2281
0.969912,-329,1823,-3639
0.974767,-125,1803,-3788
0.979767,-424,73,-1993
0.984622,-229,260,-3745
0.989476,567,1649,-6089
0.994476,369,585,-3388
0.999331,73,-49,-3175
1.4186,144,314,-5959
1.9186,55,-184,-4723
1.14071,-25,-150,-3970
1.18926,-206,-399,-5712
1.23926,-363,-1041,-5241
1.28780,-279,-791,-4298
1.33635,-277,-983,-4809
1.38635,-320,-1466,-4584
1.43490,-177,-1554,-4395
1.48345,-59,-1795,-4561
1.53345,116,-1656,-3647
1.58199,346,-2113,-3252
1.63054,274,-2698,-3625
1.68054,98,-2415,-2848
1.72909,10,-2991,-3184
1.77764,-29,-2188,-3073
1.82764,-224,-1586,-1384
1.87618,-549,-3313,-2570
1.92504,-543,-2236,-2829
1.97504,-479,-1532,-1409
1.102358,-390,-2609,-1863
1.107213,-54,-1643,-1741
1.112213,83,-1873,-652
1.117068,-42,-2438,-249
1.121923,-18,-1200,-1209
1.126923,157,-1968,-443
1.131777,107,-2420,524
1.136632,-133,-1047,-883
1.141632,-375,-2263,246
1.146487,-374,-1682,1221
1.151341,-263,-229,-713
1.156341,-520,-2223,-633
1.161227,-484,-1108,553
1.166081,-111,355,323
1.171081,-86,-1191,-220
1.175936,-20,-668,-427
1.180791,269,0,-111
1.185791,239,-165,130
1.190646,182,-218,-300
1.195500,378,-106,-267
1.200500,278,453,144
1.205355,-197,82,-274
1.210210,-527,546,-33
1.215210,-211,699,-65
1.220065,5,-36,-1184
1.224950,-325,776,-799
1.229950,-290,1176,-415
1.234805,171,1019,-575
1.239659,24,1071,-1611
1.244659,-177,1212,-2486
1.249514,348,2083,-716
1.254369,441,2249,-1033
1.259369,244,1431,-2159
1.264224,212,1331,-1466
1.269078,-129,1539,-2559
1.274078,-192,915,-2663
1.278933,-254,1130,-2488
1.283788,-436,2039,-3980
1.288788,-111,1369,-2427
1.293643,-306,1133,-2770
1.298528,-543,1567,-5302
1.303528,35,882,-3097
1.308383,303,671,-3157
1.313237,126,282,-5041
1.318237,164,69,-4171
1.323092,233,410,-4946
1.327947,101,-272,-3948
1.332947,-4,-324,-3888
1.337801,-65,-558,-6359
1.342656,-65,-1036,-4411
1.347656,-208,-936,-3823
1.352511,-327,-1406,-5305
1.357366,-233,-1513,-4177
1.362366,-233,-1868,-4370
1.367220,-95,-2098,-4848
1.372106,74,-1566,-3316
1.377106,8,-1895,-3129
1.381960,-61,-2232,-3361
1.386815,-172,-3002,-3164
1.391815,-195,-2709,-3729
1.396670,12,-340,-1461
1.401525,-118,-2384,-1202
1.406525,-506,-4170,-4186
1.411379,-370,-1193,-1929
1.416234,44,-1734,-342
1.421234,73,-3013,-2104
1.426089,1,-1568,-1477
1.430944,-33,-2113,-125
1.435944,-192,-2848,-184
1.440798,-249,-1384,-1272
1.445653,-261,-1700,-440
1.450653,-297,-2931,1108
1.455538,-177,-1197,-200
1.460393,-24,-1220,-793
1.465393,-52,-2293,508
1.470248,-300,-572,389
1.475102,-556,-1075,41
1.480102,-243,-1547,299
1.484957,123,33,-222
1.489812,-67,-949,-438
1.494812,-267,-779,316
1.499667,-113,373,587
1.504521,46,-377,335
1.509521,-47,-199,-124
1.514376,274,-349,-638
1.518893,610,110,62
1.524144,278,810,533
1.529144,-197,148,-172
1.533999,-318,619,-186
1.538854,-143,510,-400
1.543854,-283,91,-1033
1.548708,-499,944,-813
1.553563,21,1476,101
1.558563,212,1324,-756
1.563418,-177,842,-2597
1.568273,341,1714,-909
1.573273,640,2306,-186
1.578127,251,1123,-2140
1.582982,310,1142,-1843
1.587982,67,1539,-1525
1.592837,-534,1728,-2939
1.597692,-424,1826,-2475
1.602692,-350,1364,-1784
1.607546,-670,1696,-3561
1.612401,-261,1469,-2959
1.617401,-20,1030,-2566
1.622256,-222,1155,-4552
1.627111,205,828,-3527
1.632111,441,858,-3182
1.636627,230,510,-4284
1.641879,191,153,-4402
1.646733,183,253,-4570
1.651733,74,19,-3913
1.656588,-79,-179,-4668
1.661443,-175,-563,-5539
1.666443,-233,-686,-4111
1.671298,-122,-861,-4325
1.676152,-24,-1033,-4486
1.681152,-317,-1191,-3505
1.686007,-404,-2075,-4637
1.690862,-188,-2004,-4618
1.695862,-59,-1820,-3675
1.700716,98,-2006,-3573
1.705602,107,-1641,-2711
1.710602,39,-2347,-2757
1.715456,-31,-2913,-3438
1.720311,-47,-1891,-2647
1.725311,116,-1720,-1436
1.730166,-140,-2754,-2084
1.735021,-593,-2543,-2502
1.740021,-445,-2266,-1549
1.744875,-224,-2186,-1716
1.749730,-236,-1879,-947
1.754730,-88,-3205,-254
1.759585,-77,-2148,-1616
1.764440,-109,476,-1411
1.769440,373,-2350,733
1.774294,362,-3814,423
1.779149,-100,-888,-904
1.784149,39,-1177,349
1.789004,-149,-2245,621
1.793859,-536,-1657,324
1.798859,-429,-925,469
1.803713,-641,-1131,83
1.808599,-822,-1393,298
1.813599,-493,-206,-127
1.818453,-345,-863,-367
1.823308,-333,-911,801
1.828308,-8,774,1055
1.833163,491,-313,-9
1.838018,253,-809,-854
1.843018,148,-334,-995
1.847872,603,-13,167
1.852727,376,1299,1365
1.857727,114,632,762
1.862582,-138,160,49
1.867436,-274,492,-125
1.872436,-58,114,-743
1.877291,-315,790,-841
1.882146,-309,912,69
1.887146,-279,1194,-192
1.892001,-1140,2442,-2522
1.896855,-633,1431,-954
1.901855,1012,1060,785
1.906710,948,2776,-2627
1.911595,469,1883,-1243
1.916595,658,794,521
1.921450,419,1676,-2864
1.926305,341,1199,-2129
1.931305,498,730,-1250
1.936160,314,1223,-3161
1.941014,416,1089,-2613
1.946014,301,1473,-2950
1.950869,-231,1649,-3782
1.955724,-429,1328,-3198
1.960724,-443,1333,-3122
1.965579,-299,873,-2657
1.970433,-408,808,-3875
1.975433,-361,669,-4664
1.980288,-186,103,-3366
1.985143,-563,-40,-4755
1.990143,-327,-215,-5166
1.994998,233,23,-3613
1.999883,226,19,-4509
2.4883,99,-684,-4364
2.9737,121,-952,-3404
2.14592,260,-1091,-3695
2.19592,330,-1402,-3657
2.24447,292,-1931,-4084
2.29302,91,-2304,-4389
2.34302,-181,-2227,-3788
2.39156,-259,-2589,-3809
2.44011,-249,-2206,-3661
2.49011,-277,-652,-1881
2.53866,-497,-1897,-2352
2.58721,-706,-3211,-4238
2.63721,-342,-1275,-2054
2.68575,-158,-2215,-1036
2.73430,-472,-3173,-3084
2.78430,-9,-1425,-1672
2.83285,508,-2073,-388
2.88170,328,-2241,-1922
2.93170,257,-2288,-679
2.98025,16,-2982,341
2.102880,-193,-711,-1513
2.107880,-63,-1081,-295
2.112734,-225,-4073,1231
2.117589,-406,-2441,-286
2.122589,-336,-208,-515
2.127444,-515,-2147,707
2.132299,-531,-2545,855
2.137299,-149,-50,-211
2.142153,39,-1066,-431
2.147008,-190,-1965,426
2.152008,-250,89,782
2.156863,271,-458,362
2.161717,423,-1431,57
2.166717,-24,-281,765
2.171572,-229,223,971
2.176427,28,-629,49
2.181427,48,-609,-8
2.186312,-308,403,648
2.191167,-183,251,607
2.196167,205,-31,46
2.201022,285,187,-154
2.205876,46,444,92
2.210876,-90,599,8
2.215731,289,333,-442
2.220586,339,649,-258
2.225586,-158,1256,-120
2.230441,16,837,39
2.235295,212,960,-592
2.240295,-363,1476,-2741
2.245150,-252,1326,-1108
2.250005,44,2306,235
2.255005,146,2305,-1970
2.259890,639,1244,-636
2.264745,448,2026,-731
2.269745,98,2072,-2066
2.274600,-131,1174,-822
2.279454,-865,2285,-3284
2.284454,-406,1865,-2877
2.289309,237,310,-206
2.294164,-583,1596,-3773
2.299164,-352,1946,-4718
2.304019,333,957,-2056
2.308873,217,603,-2243
2.313873,294,560,-3961
2.318728,241,380,-4175
2.323583,148,126,-3052
2.328583,80,664,-4234
2.333437,-43,251,-5102
2.338292,-90,-381,-3054
2.343292,-183,144,-4211
2.348177,-193,-352,-5986
2.353032,-163,-670,-3488
2.358032,-122,-406,-3618
2.362887,-29,-1247,-5150
2.367742,-2,-1324,-3552
2.372742,39,-1241,-3063
2.377596,89,-2382,-4321
2.382451,66,-2382,-3925
2.387451,-20,-1682,-2706
2.392306,-147,-2159,-2984
2.397161,-208,-2127,-3291
2.402161,-206,-2000,-2689
2.407015,-193,-2466,-2832
2.411870,-95,-1227,-2061
2.416870,53,-1775,-984
2.421725,-109,-3945,-2782
2.426580,-329,-1752,-2404
2.431580,10,-663,19
2.436434,260,-2989,-1077
2.441289,80,-2629,-2127
2.446289,135,-1459,-427
2.450806,176,-2063,548
2.456057,-136,-2347,-661
2.460912,-372,-2098,-602
2.465912,-406,-2302,976
2.470767,-277,-1843,307
2.475621,-133,-1347,-508
2.480621,-122,-1902,530
2.485476,-25,-1406,719
2.490331,96,-604,223
2.495331,-45,-991,-245
2.500185,-333,-1475,133
2.505040,-245,-593,1144
2.510040,74,107,680
2.514925,74,-1177,91
2.519412,-263,-758,535
2.524663,-509,403,708
2.529663,-150,-643,589
2.534518,-34,-40,848
2.539373,-129,637,398
2.544373,521,-822,-434
2.549227,653,233,273
2.554082,255,1189,898
2.559082,17,123,180
2.563937,-220,649,82
2.568791,-17,507,-50
2.573791,-22,228,-645
2.578677,-438,1356,-354
2.583531,-240,1198,569
2.588531,-268,1205,-236
2.593386,-599,1187,-2907
2.598241,210,657,-1140
2.603241,474,2180,873
2.608096,364,2758,-1824
2.612950,721,2049,-1188
2.617950,551,1767,965
2.622805,271,1698,-1656
2.627660,-49,1989,-2643
2.632660,-195,1480,-693
2.637515,-652,1872,-2482
2.642369,-613,1698,-2511
2.647369,-283,749,-1543
2.652224,-734,1481,-3488
2.657079,-429,1621,-2888
2.662079,-8,1396,-2809
2.666934,164,987,-3054
2.671788,564,749,-2909
2.676788,335,865,-4245
2.681643,116,-283,-2977
2.686498,312,119,-3318
2.691498,260,683,-5243
2.696352,-9,-397,-3525
2.701207,-138,-304,-3514
2.706207,-233,-447,-5162
2.711062,-461,-963,-4243
2.715917,-472,-593,-3532
2.720917,-288,-547,-4195
2.725802,-131,-1058,-4437
2.730657,-117,-1241,-3846
2.735657,-83,-915,-2875
2.740511,342,-1550,-3075
2.745366,423,-2632,-3798
2.750366,23,-2481,-3072
2.755221,-138,-1718,-2002
2.760076,-356,-1827,-2057
2.765076,-649,-3391,-3330
2.769930,-486,-2681,-3625
2.774785,5,-100,-1049
2.779785,228,-1995,-170
2.784640,-24,-4023,-3347
2.789495,-193,-1363,-2336
2.794495,14,-1088,1074
2.799349,55,-3048,-1393
2.804204,-84,-2418,-2259
2.809204,-61,-1834,560
2.814059,-211,-2265,342
2.818914,-395,-2668,-483
2.823914,-468,-2165,92
2.828768,-488,-1411,344
2.833623,-4,-2056,278
2.838623,319,-1740,-52
2.843508,128,-988,-17
2.848363,180,-1475,494
2.853363,242,-1006,308
2.858218,166,-975,303
2.863072,-113,-1381,896
2.868072,-679,-686,1115
2.872927,-802,-704,1035
2.877782,-550,-704,501
2.882782,-475,-647,21
2.887637,-515,-731,701
2.892491,-479,351,1348
2.897491,80,199,878
2.902346,508,-534,467
2.907201,194,266,460
2.912201,355,126,166
2.917056,705,-217,44
2.921910,505,714,626
2.926910,267,646,774
2.931765,-193,382,317
2.936620,-370,869,446
2.941620,-322,423,303
2.946505,-609,935,-311
2.951360,-409,1064,-168
2.956360,-25,-81,85
2.961215,-27,1389,-756
2.966069,-324,1437,-2570
2.971069,267,-181,-1304
2.975924,871,2337,851
2.980779,285,3720,-811
2.985779,546,2060,-838
2.990633,657,2037,596
2.995488,-259,2255,-875
3.488,-495,2417,-2391
3.5343,10,1585,-543
3.10198,-367,567,-665
3.15198,-1211,1855,-3698
3.20052,-352,1398,-1657
3.24907,-81,996,-1407
3.29907,-743,2015,-3854
3.34762,271,1421,-1827
3.39617,594,1596,-1668
3.44617,-27,1203,-3077
3.49471,30,258,-3139
3.54326,42,230,-3597
3.59326,23,130,-3809
3.64211,16,694,-3927
3.69066,23,576,-3850
3.74066,55,-167,-2806
3.78921,-4,83,-3459
3.83776,-59,-156,-4966
3.88776,-65,-643,-3868
3.93630,-81,-408,-3520
3.98485,-136,-622,-3945
3.103485,-165,-986,-3447
3.108340,-138,-1361,-3763
3.113195,-145,-1559,-3677
3.118195,-156,-1418,-3023
3.123049,-131,-1802,-3364
3.127904,-99,-2079,-3613
3.132904,-18,-1766,-2884
3.137759,-6,-1466,-2129
3.142613,-202,-1991,-2273
3.147613,-338,-3148,-3114
3.152468,-224,-2461,-3016
3.157323,-95,-525,-1090
3.162323,-18,-1574,-318
3.167178,-206,-3941,-2582
3.172063,-565,-2300,-2743
3.177063,-413,-661,208
3.181918,-13,-2489,-192
3.186772,121,-2654,-2184
3.191772,287,-1395,-690
3.196627,373,-2147,1065
3.201482,99,-2897,-45
3.206482,-54,-1622,-979
3.211337,126,-1356,742
3.216191,8,-2470,1231
3.221191,-374,-2232,-127
3.226046,-377,-1481,33
3.230901,-436,-1306,690
3.235901,-525,-1484,669
3.240756,-290,-1322,551
3.245610,-156,-993,628
3.250610,17,-824,478
3.255465,199,-945,558
3.260350,135,-1061,1117
3.265350,144,-213,973
3.270205,214,-350,624
3.275060,-33,-1102,799
3.280060,-331,-168,1030
3.284576,-549,289,1008
3.289797,-533,-425,798
3.294683,-254,-249,767
3.299683,-334,571,394
3.304537,139,-34,66
3.309392,846,-759,374
3.314392,421,516,294
3.319247,391,830,549
3.324102,505,221,1019
3.329102,-149,928,760
3.333956,332,1026,1144
3.338811,208,1301,-611
3.343811,-540,574,-1965
3.348666,80,317,532
3.353520,5,3447,669
3.358520,344,2837,799
3.363375,110,1224,85
3.368230,-759,2144,-1315
3.373230,-243,1881,757
3.378085,-550,1356,-181
3.382970,-790,828,-1704
3.387970,-467,1537,-620
3.392825,-679,2156,-1175
3.397679,-631,1758,-1529
3.402679,-415,1440,-622
3.407534,-749,1255,-1459
3.412389,-922,1776,-2402
3.417389,-186,1924,-1797
3.422244,432,1847,-2047
3.427098,453,2287,-2284
3.432098,537,2124,-1488
3.436953,501,1226,-1345
3.441808,283,507,-1952
3.446808,62,774,-3386
3.451693,-97,1278,-3666
3.456548,-65,489,-2429
3.461548,-333,-167,-3632
3.466403,-490,0,-4573
3.471257,-161,-70,-3513
3.476257,83,96,-3188
3.481112,182,383,-3343
3.485967,219,-45,-3757
3.490967,180,-583,-3597
3.495821,130,-572,-3159
3.500676,98,-697,-3518
3.505676,32,-1149,-3743
3.510531,-156,-1213,-3220
3.515142,-308,-1377,-3291
3.520142,-288,-1781,-3684
3.524902,-268,-1488,-3204
3.530154,-272,-1534,-3113
3.535008,-211,-1882,-3322
3.540008,-136,-1452,-2450
3.544863,-88,-1399,-1779
3.549718,-49,-2159,-2313
3.554718,-27,-2656,-2613
3.559603,71,-2141,-2270
3.564458,126,-1072,-1075
3.569458,-45,-1772,-284
3.574313,-142,-3627,-2059
3.579167,-254,-2670,-2497
3.584167,-490,-1025,144
3.589022,-354,-2170,-65
3.593877,3,-3097,-1895
3.598877,71,-2179,-725
3.603732,23,-1384,535
3.608586,182,-1831,451
3.613586,285,-2498,58
3.618441,169,-2004,-133
3.623296,242,-1388,442
3.628296,224,-1729,690
3.633151,-127,-1918,239
3.638036,-418,-1527,230
3.643036,-674,-1511,819
3.647891,-731,-1291,715
3.652745,-600,-1070,514
3.657745,-609,-1438,978
3.662600,-529,-827,712
3.667455,-222,-683,751
3.672455,71,-1288,1060
3.677310,199,-679,660
3.682164,280,-227,617
3.687164,401,-368,649
3.692019,424,-475,1123
3.696874,228,-270,1358
3.701874,-90,-2,976
3.706728,-217,-40,1187
3.711583,-120,-75,1378
3.716583,-159,207,926
3.721468,-242,567,223
3.726323,103,-183,908
3.731323,174,-393,1040
3.736178,107,308,28
3.741033,112,594,373
3.746033,-834,1246,-986
3.750887,-427,232,-259
3.755742,637,412,1947
3.760742,28,3162,-133
3.765597,-256,2803,628
3.770452,-461,1351,1662
3.775452,-577,1498,-497
3.780306,203,1471,26
3.785161,532,1526,428
3.790161,283,1744,-320
3.795016,167,1331,-215
3.799901,132,1192,-925
3.804901,296,1412,-966
3.809756,341,1442,-472
3.814611,-174,2042,-1491
3.819611,-293,2308,-1549
3.824465,-106,1810,-417
3.829320,-670,1796,-1277
3.834320,-940,2197,-2429
3.839175,-459,1881,-1245
3.844029,-570,1233,-1450
3.849029,-595,1814,-2857
3.853884,207,2144,-2027
3.858739,373,1340,-1854
3.863739,41,1162,-2297
3.868594,292,1164,-1702
3.873448,264,569,-2041
3.878448,-168,617,-3236
3.883334,-263,1182,-3061
3.888188,-311,260,-2486
3.893188,-352,-881,-4434
3.898043,-156,-393,-4891
3.902898,69,146,-2677
3.907898,226,-33,-2789
3.912753,335,-343,-3757
3.917607,233,-741,-3323
3.922607,132,-833,-2793
3.927462,55,-625,-3163
3.932317,-9,-1302,-4430
3.937317,23,-1631,-3845
3.942172,-243,-450,-1754
3.947026,-449,-1368,-3014
3.952026,-415,-2536,-4336
3.956881,-486,-1238,-2575
3.961766,-393,-1615,-2677
3.966766,-188,-2109,-3116
3.971621,19,-1556,-2148
3.976476,155,-1902,-2120
3.981476,157,-2091,-1852
3.986331,178,-2120,-1850
3.991185,155,-1507,-1490
3.996185,76,-1443,-306
4.1040,64,-3332,-1557
4.5895,-231,-3164,-2523
4.10895,-693,-1134,0
4.15749,-497,-1920,146
4.20604,-147,-3198,-1749
4.25604,-143,-2693,-390
4.30489,-47,-1643,280
4.35344,19,-1659,344
4.40344,7,-2748,608
4.45199,33,-2172,-490
4.50054,-15,-1538,342
4.55054,-77,-1609,694
4.59908,-81,-1641,128
4.64763,-25,-1791,442
4.69763,-79,-1070,319
4.74618,-279,-1363,1017
4.79473,-242,-1527,1044
4.84473,-238,-884,633
4.89327,-465,-1270,1157
4.94213,-384,-979,894
4.99213,-338,-718,867
4.103699,-388,-825,971
4.108950,-15,-400,676
4.113805,182,-470,753
4.118805,21,-497,714
4.123660,78,-267,967
4.128514,24,-175,1157
4.133514,16,-181,1108
4.138400,278,-67,1223
4.143254,99,239,1014
4.148254,-29,376,678
4.153109,342,71,957
4.157964,273,37,874
4.162964,199,216,321
4.167819,267,394,605
4.172673,-808,1308,-758
4.177673,-795,358,-145
4.182528,99,287,1801
4.187383,-268,2937,-204
4.192383,-58,2478,751
4.197268,-172,1256,1676
4.202123,-570,1778,-570
4.207123,344,1392,226
4.211977,762,1205,667
4.216832,446,1794,-500
4.221832,308,1505,-154
4.226687,48,1089,-395
4.231542,71,1380,-1140
4.236542,278,1462,-518
4.241396,-102,1765,-866
4.246251,-450,2106,-1315
4.251251,-529,1955,-733
4.256106,-661,1901,-1313
4.260961,-567,1892,-1641
4.265961,-293,1867,-1454
4.270815,-13,1674,-1777
4.275670,37,1658,-1995
4.280670,-36,1955,-2116
4.285525,64,1562,-1788
4.290410,-90,990,-1943
4.295410,-443,1458,-3086
4.300265,-204,1508,-2372
4.305120,-108,349,-1763
4.310120,-499,201,-3268
4.314974,-284,1626,-3557
4.319829,285,1412,-2427
4.324829,-42,-1063,-1613
4.329684,-184,944,-6000
4.334539,1026,1412,-10739
4.339539,1215,-3739,-7603
4.344393,2512,-1168,-5468
4.349248,4578,732,-7912
4.354248,2180,-4096,-5914
4.359103,-75,-1393,1130
4.363957,721,2599,2790
4.368957,876,-1991,710
4.373812,-34,-3073,-33
4.378667,-163,-397,-1452
4.383667,-36,1065,949
4.388522,-2791,-399,-2864
4.393376,-3604,-8683,-12185
4.398376,-629,-4995,-5919
4.403262,110,2289,1703
4.408116,-68,-550,246
4.413116,114,-52,3
4.417971,-554,585,-2384
4.422826,-827,-2766,-2514
4.427826,-1061,-3829,-3418
4.432681,-606,-533,-7767
4.437535,958,-1159,-1954
4.442535,-108,-1106,1815
4.447390,-883,764,-561
4.452245,1290,-2934,4283
4.457245,1548,-3480,5122
4.462100,221,-359,358
4.466954,-1104,414,342
4.471954,-2061,-724,908
4.476809,-1461,-2573,155
4.481664,-1131,-2647,-1016
4.486664,-1211,-2175,-3100
4.491519,-906,-1981,-2398
4.496404,-895,-972,-109
4.501404,-884,-763,748
4.506258,-811,-715,635
4.511113,-768,-511,253
4.516113,-791,-602,221
4.520599,-918,-793,396
4.525851,-974,-1131,401
4.530706,-911,-1256,182
4.535706,-733,-1516,117
4.540560,-679,-1529,533
4.545446,-743,-847,1019
4.550446,-738,-395,1155
4.555300,-722,-481,1033
4.560155,-674,-492,714
4.565155,-616,-367,287
4.570010,-663,-449,51
4.574864,-606,-397,101
4.579864,-843,-513,126
4.584719,-793,-513,474
4.589574,-392,-58,1326
4.594574,-1700,-1031,-317
4.599429,249,1060,1903
4.604283,-2811,80,1376
4.609283,-15984,-7735,-9483
4.614138,-15034,-4693,-5345
4.618993,-3248,499,1214
4.623993,182,176,-4134
4.628848,-1848,669,-1095
4.633733,-1993,-1274,4019
4.638733,303,-442,3033
4.643588,148,2046,-90
4.648442,-1418,3479,-1238
4.653442,-761,3517,905
4.658297,-934,1790,226
4.663152,-2809,776,-2000
4.668152,-1436,217,585
4.673007,-454,2294,1315
4.677861,-1672,4149,-1183
4.682861,-1411,2133,-506
4.687716,-1086,451,446
4.692571,-1066,780,-59
4.697571,-1245,1440,-472
4.702425,-1374,1371,-765
4.707280,-1200,1274,-615
4.712280,-1108,1346,-340
4.717135,-1154,1323,-249
4.722020,-1948,2499,-1065
4.727020,-1893,2501,-1609
4.731875,-1200,1269,-65
4.736730,-1381,1478,339
4.741730,-1499,1328,-633
4.746584,-1516,996,-590
4.751439,-1524,1153,-909
4.756439,-1604,830,-1156
4.761294,-1763,655,-490
4.766149,-1663,839,-288
4.771149,-1593,907,-377
4.776003,-1686,771,-188
4.780858,-1732,646,8
4.785858,-1632,578,-263
4.790713,-1690,403,-552
4.795568,-1677,592,-42
4.800568,-1632,85,-2022
4.805422,-2531,-1049,-2852
4.810277,-2954,-624,815
4.815277,-2043,48,82
4.820162,-1757,107,-1870
4.824987,-2079,162,-456
4.829987,-1834,255,-1490
4.834872,-1602,405,-2259
4.839727,-1795,171,-718
4.844727,-1923,66,-741
4.849581,-2061,-43,-854
4.854436,-1918,-136,-259
4.859436,-2184,-8,-1249
4.864291,-2700,-117,-2418
4.869145,-2263,-367,-468
4.874145,-2156,-81,2058
4.879000,-2047,533,392
4.883855,-1747,-188,-1511
4.888855,-2154,-833,-845
4.893710,-2154,-122,-461
4.898564,-1890,-33,-283
4.903564,-2000,-506,-302
4.908081,-2098,-765,-711
4.913332,-2061,-750,-558
4.918187,-2002,-377,-358
4.923187,-2020,-238,-390
4.928042,-2023,-443,-440
4.932897,-2015,-529,-554
4.937897,-2029,-508,-595
4.942751,-2020,-467,-561
4.947606,-2015,-409,-492
4.952606,-1993,-463,-500
4.957461,-2006,-461,-565
4.962346,-2020,-368,-527
4.967346,-2002,-377,-542
4.972170,-2011,-429,-625
4.977056,-1979,-406,-616
4.982056,-1981,-333,-600
4.986910,-2004,-354,-611
4.991765,-1986,-393,-625
4.996765,-2063,-299,-561
5.1620,-1965,-354,-486
5.6475,-2231,-154,-381
5.11475,-2741,216,-404
5.16329,-2259,30,-572
5.21184,-1691,133,-399
5.26184,-1734,448,-342
5.31039,-1784,353,-527
5.35894,-1775,371,-465
5.40894,-1727,491,-443
5.45748,-1654,517,-583
5.50603,-1645,539,-586
5.55603,-1706,492,-586
5.60458,-1754,385,-650
5.65312,-1743,351,-661
5.70312,-1757,292,-681
5.75167,-1756,224,-658
5.80022,-1782,187,-781
5.85022,-1793,89,-784
5.89907,-1741,130,-699
5.94762,-2104,-31,-1241
5.99762,-2279,-408,-1290
5.104617,-1879,-299,-913
5.109471,-1866,107,-1118
5.114471,-2011,176,-1293
5.119326,-1868,-195,-1347
5.124181,-1640,-467,-1340
5.129181,-1595,-540,-1338
5.134036,-1807,-520,-1208
5.138890,-1881,-363,-933
5.143890,-1879,-424,-690
5.148745,-1986,-388,-920
5.153600,-1890,-234,-1227
5.158600,-1734,-684,-808
5.163455,-1956,-713,-506
5.168309,-2006,78,-533
5.173309,-1715,316,-813
5.178164,-1727,173,-1118
5.183049,-1834,62,-1116
5.188049,-1779,-93,-1141
5.192904,-1797,-33,-1090
5.197759,-1893,37,-872
5.202759,-1848,-115,-758
5.207613,-1774,-220,-893
5.212468,-1838,-113,-1004
5.217468,-1822,-27,-991
5.222323,-1834,-102,-929
5.227178,-1872,-181,-891
5.232178,-1815,-131,-924
5.237032,-1813,-65,-952
5.241887,-1847,-56,-929
5.246887,-1843,-109,-906
5.251742,-1840,-158,-924
5.256597,-1852,-118,-916
5.261597,-1824,-81,-916
5.266451,-1802,-113,-958
5.271306,-1827,-143,-947
5.276306,-1824,-117,-918
5.281191,-1827,-86,-938
5.286046,-1840,-88,-950
5.291046,-1831,-93,-909
5.295901,-1832,-102,-888
5.300756,-1856,-97,-918
5.305756,-1857,-100,-943
5.310610,-1834,-122,-940
5.315465,-1836,-108,-904
5.320465,-1843,-90,-890
5.325320,-1831,-88,-922
5.330175,-1822,-95,-958
5.335175,-1838,-111,-947
5.340029,-1852,-109,-925
5.344884,-1820,-106,-949
5.349884,-1809,-102,-938
5.354739,-1838,-90,-900
5.359593,-1848,-108,-909
5.364593,-1847,-124,-915
5.369448,-1832,-113,-900
5.374303,-1841,-117,-899
5.379303,-1850,-109,-936
5.384158,-1825,-93,-949
5.389043,-1854,-99,-916
5.394043,-1868,-108,-922
5.398898,-1822,-97,-933
5.403752,-1815,-102,-922
5.408752,-1848,-122,-911
5.413607,-1854,-118,-900
5.418462,-1822,-102,-934
5.423462,-1811,-97,-963
5.428317,-1825,-90,-949
5.433171,-1857,-100,-929
5.438171,-1856,-111,-927
5.443026,-1829,-92,-922
5.447881,-1861,-95,-920
5.452881,-1870,-104,-931
5.457736,-1843,-92,-904
5.462590,-1829,-92,-909
5.467590,-1813,-106,-950
5.472445,-1820,-109,-929
5.477300,-1822,-99,-890
5.482300,-1815,-95,-913
5.487154,-1829,-100,-929
5.492009,-1840,-120,-938
5.497009,-1834,-134,-929
5.501894,-1820,-115,-895
5.506749,-1820,-104,-924
5.511749,-1816,-95,-931
5.516604,-1802,-84,-911
5.521090,-1818,-102,-922
5.526341,-1840,-113,-911
5.531341,-1843,-124,-916
5.536196,-1848,-115,-933
5.541081,-1832,-97,-927
5.546081,-1820,-124,-922
5.550936,-1838,-134,-916
5.555791,-1829,-109,-933
5.560791,-1836,-104,-934
5.565646,-1870,-143,-879
5.570500,-1832,-118,-890
5.575500,-1806,-63,-950
5.580355,-1852,-99,-940
5.585210,-1859,-97,-899
5.590210,-1834,-58,-916
5.595065,-1840,-84,-950
5.599919,-1848,-97,-900
5.604919,-1843,-100,-895
5.609774,-1848,-117,-952
5.614629,-1861,-90,-913
5.619629,-1834,-95,-900
5.624514,-1816,-136,-940
5.629369,-1854,-124,-909
5.634369,-1859,-102,-915
5.639224,-1831,-90,-938
5.644078,-1802,-65,-934
5.649078,-1815,-86,-941
5.653933,-1854,-111,-915
5.658788,-1850,-92,-908
5.663788,-1847,-90,-899
5.668643,-1840,-99,-890
5.673497,-1831,-90,-909
5.678497,-1834,-81,-908
5.683352,-1827,-81,-924
5.688207,-1829,-92,-945
5.693207,-1845,-97,-913
5.697723,-1859,-93,-888
5.702975,-1845,-97,-916
5.707830,-1852,-92,-940
5.712830,-1868,-81,-916
5.717684,-1841,-100,-890
5.722539,-1850,-127,-911
5.727539,-1850,-122,-920
5.732394,-1841,-95,-886
5.737248,-1872,-127,-895
5.742248,-1856,-136,-965
5.747103,-1831,-52,-983
5.751958,-1841,-92,-952
5.756958,-1825,-136,-933
5.761813,-1820,-67,-902
5.766667,-1824,-84,-911
5.771667,-1824,-136,-940
5.776553,-1852,-124,-934
5.781377,-1850,-108,-931
5.786377,-1834,-113,-918
5.791262,-1838,-122,-904
5.796117,-1854,-136,-911
5.801117,-1863,-122,-904
5.805972,-1845,-90,-911
5.810826,-1820,-86,-945
5.815826,-1809,-102,-949
5.820681,-1816,-118,-911
5.825536,-1815,-109,-890
5.830536,-1816,-102,-913
5.835391,-1843,-109,-945
5.840245,-1822,-113,-950
5.845245,-1788,-109,-925
5.850100,-1822,-97,-918
5.854955,-1832,-88,-929
5.859955,-1840,-90,-909
5.864810,-1859,-102,-908
5.869664,-1827,-104,-947
5.874664,-1816,-109,-936
5.879519,-1816,-97,-893
5.884374,-1820,-81,-900
5.889374,-1852,-88,-916
5.894228,-1847,-108,-922
5.899083,-1840,-133,-933
5.904083,-1838,-127,-940
5.908938,-1809,-93,-945
5.913793,-1806,-86,-934
5.918793,-1813,-74,-900
5.923647,-1806,-59,-890
5.928533,-1845,-95,-933
5.933533,-1873,-125,-947
5.938387,-1857,-129,-918
5.943242,-1868,-127,-920
5.948242,-1827,-99,-931
5.953097,-1786,-81,-933
5.957952,-1848,-90,-954
5.962952,-1870,-100,-940
5.967806,-1834,-102,-893
5.972661,-1831,-90,-906
5.977661,-1836,-93,-936
5.982516,-1832,-97,-911
5.987371,-1829,-86,-890
5.992371,-1850,-106,-918
5.997225,-1857,-124,-924
6.2080,-1854,-115,-916
6.7080,-1836,-97,-938
6.11935,-1809,-93,-934
6.16789,-1854,-88,-922
6.21789,-1840,-99,-943
6.26644,-1770,-120,-958
6.31499,-1813,-93,-954
6.36499,-1848,-75,-922
6.41354,-1836,-92,-906
6.46208,-1825,-104,-929
6.51208,-1822,-102,-931
6.56063,-1829,-93,-934
6.60918,-1824,-115,-956
6.65918,-1815,-97,-950
6.70773,-1816,-86,-931
6.75627,-1840,-129,-938
6.80627,-1857,-117,-952
6.85482,-1861,-108,-933
6.90337,-1848,-131,-918
6.95337,-1816,-108,-936
6.100192,-1827,-102,-950
6.105046,-1856,-120,-945
6.110046,-1834,-113,-945
6.114901,-1820,-122,-949
6.119756,-1843,-143,-927
6.124756,-1840,-118,-918
6.129611,-1809,-83,-931
6.134496,-1831,-88,-945
6.139496,-1848,-104,-963
6.144351,-1827,-95,-952
6.149205,-1859,-95,-927
6.154205,-1865,-109,-913
6.159060,-1827,-104,-915
6.163915,-1811,-113,-950
6.168915,-1816,-106,-945
6.173769,-1841,-93,-913
6.178624,-1852,-108,-943
6.183624,-1832,-93,-947
6.188479,-1818,-79,-915
6.193334,-1840,-108,-945
6.198334,-1829,-100,-941
6.203188,-1799,-79,-909
6.208043,-1827,-117,-958
6.213043,-1841,-115,-974
6.217898,-1834,-72,-933
6.222753,-1843,-93,-933
6.227753,-1840,-122,-925
6.232607,-1815,-115,-915
6.237462,-1822,-88,-924
6.242462,-1870,-86,-924
6.247317,-1881,-111,-918
6.252172,-1838,-111,-913
6.257172,-1816,-86,-906
6.262057,-1829,-81,-913
6.266912,-1845,-117,-927
6.271912,-1824,-120,-916
6.276766,-1834,-111,-931
6.281621,-1873,-138,-952
6.286621,-1861,-125,-918
6.291476,-1840,-93,-890
6.296331,-1836,-90,-881
6.301331,-1840,-95,-908
6.306185,-1836,-88,-961
6.311040,-1824,-74,-947
6.316040,-1825,-75,-895
6.320895,-1829,-88,-899
6.325749,-1820,-84,-934
6.330749,-1825,-83,-924
6.335604,-1843,-100,-908
6.340459,-1836,-104,-904
6.345459,-1832,-90,-893
6.350314,-1857,-93,-931
6.355168,-1850,-104,-941
6.360168,-1816,-84,-906
6.365054,-1820,-81,-908
6.369908,-1824,-99,-902
6.374908,-1843,-97,-913
6.379763,-1875,-111,-961
6.384618,-1840,-117,-950
6.389618,-1820,-108,-933
6.394473,-1843,-122,-950
6.399327,-1824,-93,-949
6.404327,-1831,-90,-938
6.409182,-1848,-133,-931
6.414037,-1824,-118,-927
6.419037,-1832,-100,-941
6.423892,-1861,-113,-963
6.428746,-1861,-95,-918
6.433746,-1831,-88,-874
6.438601,-1815,-111,-927
6.443456,-1832,-99,-931
6.448456,-1840,-102,-909
6.453310,-1854,-134,-966
6.458165,-1873,-117,-966
6.463165,-1840,-100,-911
6.468020,-1802,-108,-913
6.472875,-1848,-113,-940
6.477875,-1863,-120,-909
6.482760,-1825,-122,-891
6.487246,-1836,-106,-909
6.492498,-1845,-100,-934
6.497498,-1840,-115,-970
6.502352,-1843,-120,-958
6.507237,-1829,-133,-908
6.512237,-1840,-140,-908
6.517092,-1854,-120,-929
6.521578,-1813,-109,-929
6.526830,-1813,-109,-941
6.531830,-1832,-95,-918
6.536685,-1790,-77,-904
6.541570,-1818,-84,-941
6.546570,-1857,-109,-931
6.551425,-1809,-127,-929
6.556279,-1827,-108,-940
6.561279,-1868,-92,-927
6.566134,-1847,-117,-913
6.570989,-1870,-120,-881
6.575989,-1884,-90,-893
6.580843,-1840,-70,-922
6.585698,-1838,-77,-925
6.590698,-1845,-88,-934
6.595553,-1831,-81,-918
6.600408,-1831,-92,-891
6.605408,-1825,-97,-906
6.610262,-1816,-88,-929
6.615148,-1840,-100,-916
6.620148,-1840,-125,-918
6.625002,-1827,-129,-918
6.629857,-1845,-109,-915
6.634857,-1843,-109,-927
6.639712,-1825,-102,-943
6.644567,-1832,-104,-959
6.649567,-1829,-120,-943
6.654421,-1807,-111,-924
6.659276,-1818,-99,-909
6.664276,-1827,-106,-891
6.669131,-1843,-109,-938
6.673986,-1852,-83,-933
6.678986,-1816,-113,-872
6.683840,-1818,-152,-947
6.688726,-1850,-127,-979
6.693726,-1813,-79,-911
6.698580,-1759,5,-954
6.703435,-1779,-50,-941
6.708435,-1820,-167,-890
6.713290,-1893,-131,-886
6.718144,-1886,-102,-879
6.723144,-1824,-86,-931
6.727999,-1870,-93,-958
6.732854,-1879,-125,-965
6.737854,-1845,-108,-956
6.742709,-1856,-138,-933
6.747563,-1857,-134,-927
6.752563,-1840,-138,-913
6.757449,-1852,-215,-936
6.762303,-1848,-150,-949
6.767303,-1809,-74,-911
6.772158,-1845,-99,-908
6.777013,-1845,-108,-936
6.782013,-1811,-120,-931
6.786868,-1854,-134,-938
6.791722,-1861,-127,-909
6.796722,-1843,-97,-872
6.801577,-1825,-93,-931
6.806462,-1804,-74,-954
6.811462,-1836,-59,-908
6.816317,-1843,-142,-911
6.821172,-1806,-140,-958
6.826172,-1799,-61,-956
6.831027,-1806,-95,-952
6.835881,-1843,-131,-947
6.840881,-1850,-109,-909
6.845736,-1807,-127,-883
6.850591,-1822,-142,-888
6.855591,-1829,-142,-918
6.860446,-1809,-122,-938
6.865300,-1822,-81,-986
6.870300,-1859,-152,-933
6.875185,-1804,-122,-952
6.880040,-1836,-111,-897
6.885040,-2068,-299,-563
6.889895,-1931,-129,-731
6.894750,-1777,64,-958
6.899750,-1925,-56,-783
6.904604,-1909,-54,-791
6.909459,-1815,-6,-900
6.914459,-1806,-29,-956
6.919314,-1831,-63,-950
6.924169,-1802,-70,-990
6.929169,-1822,-65,-979
6.934023,-1886,-75,-863
6.938878,-1886,-118,-829
6.943878,-1891,-131,-816
6.948733,-1913,-49,-822
6.953588,-2013,-113,-761
6.958588,-2013,-111,-622
6.963442,-1898,-47,-666
6.968297,-2116,-222,-709
6.973297,-2177,1,-638
6.978152,-1618,99,-1161
6.983007,-1395,-256,-1609
6.988007,-1625,-265,-1263
6.992861,-1600,-234,-1322
6.997716,-1565,-186,-1543
7.2716,-1659,-42,-1340
7.7601,-1702,-118,-1206
7.12456,-1766,-177,-1138
7.17456,-1772,-138,-1181
7.22311,-1897,-84,-1066
7.27165,-2122,17,-741
7.32165,-2097,80,-704
7.37020,-2090,296,-763
7.41875,-2263,110,-613
7.46875,-2334,-374,-443
7.51730,-2161,-86,-1124
7.56584,-2102,42,-1486
7.61584,-2057,291,-1108
7.66439,-1923,769,-1199
7.71294,-2179,-95,-797
7.76294,-2377,-813,-700
7.81149,-2307,103,-1416
7.86003,-2522,640,-1484
7.91003,-2650,-265,-1175
7.95858,-2393,-399,-1136
7.100713,-2243,533,-902
7.105713,-2070,587,-424
7.110568,-1848,324,-309
7.115422,-1854,674,-534
7.120422,-1948,626,-620
7.125277,-1963,573,-570
7.130132,-1882,974,-222
7.135132,-1954,496,226
7.139987,-2263,32,5
7.144872,-2561,446,-408
7.149872,-2702,303,-436
7.154727,-2750,99,-306
7.159581,-2777,541,-93
7.164581,-2761,594,-42
7.169436,-2757,466,-143
7.174291,-2773,674,-129
7.179291,-2731,790,-188
7.184145,-2675,832,-347
7.189000,-2620,939,-354
7.194000,-2516,1165,-172
7.198855,-2391,1364,-152
7.203710,-2315,1394,-247
7.208710,-2234,1644,49
7.213564,-2140,1892,503
7.218419,-2168,1715,760
7.223419,-2313,1464,674
7.228274,-2441,1546,316
7.233129,-2504,1819,210
7.238129,-2598,1790,112
7.242983,-2586,1849,60
7.247838,-2332,2397,541
7.252838,-2238,2421,760
7.257693,-2359,1980,496
7.262548,-2415,1992,398
7.267548,-2493,2169,357
7.272433,-2575,2228,230
7.276919,-2577,2215,178
7.281832,-2514,2194,241
7.287084,-2450,2314,383
7.292084,-2440,2456,519
7.296938,-2393,2530,571
7.301793,-2340,2558,630
7.306793,-2343,2488,712
7.311648,-2334,2428,698
7.316503,-2323,2440,598
7.321503,-2232,2431,562
7.326357,-2122,2387,632
7.331212,-2120,2289,723
7.336212,-2102,2253,728
7.341067,-2054,2281,698
7.345922,-2027,2233,719
7.350922,-1988,2208,723
7.355776,-1941,2214,692
7.360662,-1881,2185,696
7.365662,-1816,2144,755
7.370486,-1786,2124,778
7.375371,-1690,2176,733
7.380371,-1561,2181,737
7.385226,-1549,2064,755
7.390081,-1502,1960,728
7.395081,-1407,1937,767
7.399935,-1388,1885,817
7.404790,-1345,1908,794
7.409790,-1304,1983,830
7.414645,-1254,1803,778
7.419499,-1025,1790,887
7.424499,-936,1803,1305
7.429354,-1099,1458,1124
7.434209,-1125,1548,790
7.439209,-1020,1858,864
7.444064,-965,1717,839
7.448918,-986,1439,919
7.453918,-859,1535,989
7.458773,-688,1715,1024
7.463628,-768,1362,1146
7.468628,-861,1080,1090
7.473483,-884,1199,942
7.478337,-922,1294,805
7.483337,-886,1233,805
7.488223,-845,1087,1012
7.493077,-834,1160,1160
7.498077,-741,1299,1223
7.502932,-613,1260,1360
7.507787,-572,1249,1455
7.512787,-586,1246,1478
7.517642,-558,1246,1467
7.522158,-463,1251,1387
7.527379,-447,1215,1344
7.532379,-524,1231,1374
7.537264,-522,1230,1182
7.542119,-465,1039,1021
7.547119,-427,957,1069
7.551974,-374,1160,933
7.556829,-327,778,1046
7.561829,-238,699,958
7.566683,-92,1317,1096
7.571538,-150,712,1940
7.576538,-284,353,1183
7.581393,-154,880,37
7.586248,-90,783,553
7.591248,-186,826,928
7.596102,-190,869,874
7.600957,-172,710,1099
7.605957,-140,767,1165
7.610812,-42,683,1253
7.615666,-6,724,1435
7.620666,-100,910,1439
7.625521,-154,771,1501
7.630376,-243,689,1612
7.635376,-458,485,1835
7.640231,-358,16,1997
7.645085,-122,7,1669
7.650085,-243,53,1655
7.654940,-367,216,1630
7.659795,-309,349,1305
7.664795,-254,-4,1585
7.669650,-183,162,1623
7.674504,-54,507,1240
7.679504,98,546,1223
7.684359,224,808,1271
7.689214,264,960,1180
7.694214,296,960,1194
7.699069,333,1142,1328
7.703923,316,1240,1449
7.708923,408,1169,1492
7.713809,574,1037,1424
7.718663,632,932,1485
7.723663,587,1112,1474
7.728518,555,821,1430
7.733373,651,330,1719
7.738373,669,814,1501
7.743227,507,944,1157
7.748082,487,687,1485
7.753082,558,787,1573
7.757937,589,496,1458
7.762792,646,289,1569
7.767792,662,305,1733
7.772646,714,258,1708
7.777501,758,251,1564
7.782501,749,573,1648
7.787356,746,407,1792
7.792211,544,-233,1603
7.797211,312,530,1148
7.802065,405,564,1278
7.806920,491,-313,1503
7.811920,307,219,1335
7.816775,169,364,1705
7.821630,257,76,2087
7.826630,380,407,1748
7.831484,357,214,1469
7.836370,342,-263,1524
7.841370,285,-227,1442
7.846224,-36,-277,1462
7.851079,-184,-261,1540
7.856079,99,-58,1387
7.860934,362,-142,1371
7.865789,266,-168,1621
7.870789,248,-90,1826
7.875643,840,-204,1814
7.880498,1201,-350,1871
7.885498,785,-545,2117
7.890353,442,-786,2142
7.895207,464,-797,1778
7.900207,619,-702,1333
7.905093,835,-708,1174
7.909947,944,-690,1173
7.914947,873,-641,1215
7.919802,724,-777,1392
7.924657,492,-458,1385
7.929657,298,444,1149
7.934512,278,174,1208
7.939366,307,-779,1506
7.944366,301,-527,1596
7.949221,264,-68,1492
7.954076,223,-234,1462
7.959076,192,-420,1749
7.963931,285,-602,2114
7.968785,323,-759,2135
7.973785,189,-522,1781
7.978671,380,-52,1312
7.983525,807,-181,1014
7.988525,1037,-536,923
7.993380,1148,-543,942
7.998235,1048,-581,967
8.3235,771,-497,737
8.8090,683,-509,585
8.12944,569,-356,583
8.17944,349,91,353
8.22799,421,-97,389
8.27654,439,-286,507
8.32654,367,-109,516
8.37508,498,-65,942
8.42363,501,78,1390
8.47363,448,89,1506
8.52218,442,82,1453
8.57073,478,12,1505
8.62073,685,-331,1735
8.66958,655,42,1742
8.71813,614,430,1712
8.76813,858,30,1951
8.81667,896,-93,2199
8.86522,896,205,2181
8.91522,830,308,1764
8.96377,448,276,1121
8.101232,194,330,764
8.106232,296,123,1164
8.111086,408,-117,1778
8.115941,396,-193,1989
8.120941,326,-259,2058
8.125458,71,-240,1922
8.130709,24,-425,1842
8.135564,374,-747,2172
8.140564,460,-672,2235
8.145419,287,-542,1855
8.150273,341,-691,1735
8.155273,421,-663,1710
8.160128,501,-716,2005
8.164983,667,-754,2392
8.169983,571,-593,1578
8.174838,496,-577,1242
8.179692,614,-531,1780
8.184692,601,-475,1735
8.189578,528,-440,1689
8.194432,512,-468,1683
8.199432,487,-342,1631
8.204287,428,-129,1490
8.209142,433,-265,1399
8.214142,455,-327,1555
8.218997,444,-254,1492
8.223851,473,-270,1369
8.228851,503,-286,1430
8.233706,537,-284,1492
8.238561,514,-243,1464
8.243561,414,-200,1490
8.248415,351,-131,1524
8.253270,341,-61,1510
8.258270,407,-49,1721
8.263125,392,-13,1706
8.268010,241,-24,1264
8.273010,219,-115,1164
8.277865,314,-200,1389
8.282720,478,-184,1819
8.287720,489,-93,1673
8.292574,239,-283,649
8.297429,217,-454,549
8.302429,380,-390,1114
8.307284,369,-490,1117
8.312139,267,-572,851
8.317139,219,-604,755
8.321993,226,-658,860
8.326848,219,-679,835
8.331848,233,-670,883
8.336703,214,-638,940
8.341558,96,-702,730
8.346558,46,-661,705
8.351443,78,-565,792
8.356298,126,-674,924
8.361298,132,-752,1157
8.366152,157,-693,1299
8.371007,257,-552,1678
8.376007,216,-367,1605
8.380862,216,-379,1010
8.385716,399,-431,1012
8.390716,417,-374,1053
8.395571,282,-367,837
8.400426,166,-333,801
8.405426,74,-240,828
8.410281,42,-184,896
8.415135,53,-159,1008
8.420135,76,-115,1115
8.424990,89,-63,1074
8.429845,60,71,1107
8.434845,7,285,1337
8.439700,-140,339,1415
8.444554,-311,458,1578
8.449554,-250,628,1835
8.454440,-79,505,1912
8.459294,-52,364,2056
8.464294,-190,237,2140
8.469149,-329,44,2064
8.474004,-336,-47,2030
8.479004,-411,-74,2065
8.483859,-545,-86,2092
8.488713,-543,-97,2044
8.493713,-529,-190,1937
8.498568,-565,-302,1769
8.503423,-583,-393,1612
8.508423,-527,-399,1662
8.513278,-427,-320,1869
8.517794,-420,-417,1830
8.522677,-415,-345,1390
8.527928,-477,-95,1371
8.532928,-666,-11,1931
8.537783,-570,-109,2340
8.542638,-442,-345,2697
8.547638,-592,-313,2892
8.552493,-633,-256,2955
8.557378,-538,-240,3013
8.562378,-497,-238,2881
8.567233,-520,-375,2855
8.572087,-581,-109,2846
8.577087,-649,149,2667
8.581942,-706,141,2547
8.586797,-720,546,2499
8.591797,-649,824,2426
8.596652,-563,705,2447
8.601506,-520,830,2389
8.606506,-431,932,2280
8.611361,-336,955,2455
8.616216,-336,1082,2633
8.621216,-325,1112,2690
8.626071,-242,1148,2797
8.630925,-270,1121,3006
8.635925,-286,1082,3131
8.640780,-177,973,2947
8.645665,-225,771,2653
8.650665,-292,705,2480
8.655520,-234,621,2392
8.660375,-268,551,2415
8.665375,-256,657,2608
8.670229,-179,889,2763
8.675084,-184,917,2778
8.680084,-163,783,2699
8.684939,-145,789,2480
8.689794,-134,767,2390
8.694794,-99,826,2449
8.699648,-134,846,2383
8.704503,-200,787,2337
8.709503,-184,819,2206
8.714358,-97,785,2072
8.719213,-56,753,2092
8.724213,-99,560,2006
8.729067,-200,417,1889
8.733922,-352,671,1903
8.738922,-499,894,2058
8.743777,-543,815,2340
8.748662,-511,780,2576
8.753662,-515,919,2596
8.758486,-502,1042,2555
8.763372,-458,1099,2528
8.768372,-429,1037,2430
8.773226,-434,1049,2297
8.778081,-443,1076,2147
8.783081,-408,915,2096
8.787936,-395,928,2115
8.792790,-411,1108,2167
8.797790,-343,1023,2289
8.802645,-306,935,2469
8.807500,-349,890,2496
8.812500,-145,646,1940
8.817355,-86,840,1767
8.822209,-370,1333,2322
8.827209,-372,1455,2408
8.832064,-197,1503,2646
8.836919,-93,1710,3108
8.841919,-59,1749,2697
8.846774,-145,1378,2214
8.851628,-224,1051,2183
8.856628,-288,1124,2222
8.861483,-367,1296,2344
8.866368,-399,1392,2358
8.871368,-397,1378,2267
8.876223,-400,1305,2235
8.881078,-370,1249,2147
8.886078,-329,1205,2058
8.890933,-313,1296,2164
8.895787,-295,1576,2399
8.900787,-342,1787,2472
8.905642,-399,1769,2405
8.910497,-436,1658,2306
8.915497,-490,1431,2033
8.920352,-488,1155,1960
8.925206,-477,992,2178
8.930206,-438,907,2137
8.935061,-383,851,1981
8.939916,-375,798,1915
8.944916,-370,887,1803
8.949770,-390,1110,1685
8.954625,-408,1207,1533
8.959625,-386,1217,1437
8.964142,-390,1246,1396
8.969393,-438,1242,1315
8.974248,-422,1244,1403
8.979248,-338,1237,1540
8.984103,-324,1290,1537
8.988957,-413,1478,1608
8.993957,-492,1578,1676
8.998843,-499,1551,1623
9.3697,-506,1580,1599
9.8697,-502,1612,1553
9.13552,-467,1551,1431
9.18407,-425,1476,1317
9.23407,-354,1426,1248
9.28262,-284,1415,1223
9.33116,-274,1473,1201
9.38116,-302,1501,1223
9.42971,-325,1481,1253
9.47826,-325,1481,1233
9.52826,-281,1444,1231
9.57681,-254,1389,1215
9.62535,-238,1328,1314
9.67535,-236,1294,1228
9.72390,-268,1337,1153
9.77245,-9,1155,2296
9.82245,282,967,2997
9.87100,91,1324,1915
9.91954,-206,1667,1231
9.96954,-199,1590,1506
9.101809,-38,1405,1689
9.106664,-13,1158,1569
9.111664,-120,923,1414
9.116519,-199,851,1321
9.121404,-188,1014,1119
9.126404,-283,1140,926
9.131228,-408,1108,848
9.136083,-88,1115,658
9.141083,-727,715,1057
9.145968,-1938,994,1742
9.150823,-949,2756,717
9.155823,517,2946,-327
9.160677,178,1567,840
9.165532,-616,1678,2155
9.170532,-284,2444,1876
9.175387,142,2528,1246
9.180242,-411,2708,1544
9.185242,-288,2851,1330
9.190096,615,2451,517
9.194951,808,1926,912
9.199951,660,1544,1426
9.204806,640,1546,1074
9.209661,524,1801,665
9.214661,449,1753,476
9.219515,485,1408,449
9.224370,516,1078,485
9.229370,448,1030,576
9.234225,444,1230,535
9.239080,392,1353,510
9.244080,-204,1765,1060
9.248934,-559,2572,1296
9.253789,-315,2797,1042
9.258789,-272,2353,1292
9.263644,-286,2055,1392
9.268498,-229,2010,1094
9.273498,-258,1774,944
9.278353,-215,1242,755
9.283208,-92,883,730
9.288208,-68,892,939
9.293063,-50,992,930
9.297917,114,1431,1012
9.302917,183,2012,982
9.307772,178,2139,630
9.312627,351,2230,658
9.317627,396,2319,676
9.322482,205,1944,382
9.327367,26,1401,460
9.332367,-136,976,707
9.337191,123,601,-27
9.342076,260,962,-840
9.347076,-36,1803,-822
9.351931,387,1864,-1075
9.356786,696,1683,-1036
9.361786,317,1787,-508
9.366641,196,1890,-231
9.371495,233,1844,-52
9.376495,357,1669,-97
9.381350,448,1706,-456
9.386205,374,1881,-1127
9.391205,378,1978,-1763
9.396060,401,1894,-1993
9.400914,374,1578,-1972
9.405914,267,1162,-1766
9.410769,280,742,-1618
9.415624,442,537,-1797
9.420624,378,710,-2050
9.425478,219,889,-2193
9.430333,239,680,-2297
9.435333,260,412,-2216
9.440188,237,253,-2348
9.445043,210,232,-2434
9.450043,26,432,-1891
9.454897,17,155,-1891
9.459752,71,-458,-1897
9.464752,114,-665,-1632
9.469607,316,-633,-2045
9.474462,167,-736,-2145
9.479462,-145,-884,-2514
9.484316,-81,-1491,-3511
9.489171,142,-2423,-3986
9.494171,142,-2202,-3775
9.499026,323,-1600,-2295
9.503911,774,-722,-1831
9.508911,715,-477,-3350
9.513766,307,-2489,-2827
9.518252,-270,-2223,-1420
9.523503,-656,-675,-1402
9.528503,-479,-1556,-1722
9.533358,-670,-1813,-2027
9.538213,-766,-2143,-1604
9.543213,-293,-2788,-2179
9.548068,-86,-2416,-3261
9.552922,-67,-2093,-2325
9.557922,28,-1722,-1557
9.562808,24,-1581,-1520
9.567662,144,-1256,-581
9.572662,494,-1270,149
9.577517,508,-1966,-324
9.582372,453,-2709,-170
9.587372,367,-3050,144
9.592227,-95,-1931,-279
9.597081,-99,-1891,730
9.602081,64,-2650,905
9.606936,-133,-1916,-616
9.611791,-42,-2198,-609
9.616791,-75,-2338,-399
9.621645,-388,-1620,-525
9.626500,-374,-2020,267
9.631500,-290,-1875,762
9.636355,-365,-1357,880
9.641210,-365,-1634,992
9.646210,-263,-1747,846
9.651064,-158,-1695,999
9.655919,-49,-1611,1180
9.660919,-4,-1213,976
9.665774,51,-1140,1062
9.670659,155,-1384,1455
9.675659,146,-1318,1465
9.680514,12,-1022,1231
9.685369,-236,-929,1246
9.690369,-443,-1125,1289
9.695223,-497,-1147,1214
9.700078,-499,-963,1140
9.705078,-440,-808,1105
9.709933,-467,-620,1148
9.714788,-483,-513,1148
9.719788,-286,-379,1057
9.724642,-233,-218,1089
9.729497,-258,-408,1312
9.734497,-72,-538,1544
9.739352,178,-325,1874
9.744206,233,-193,1987
9.749206,-17,105,1787
9.754061,-368,524,1769
9.758916,-572,549,2053
9.763916,-581,435,2512
9.768771,-443,480,2080
9.773625,-402,735,1351
9.778625,-243,1044,1448
9.783480,226,937,1483
9.787997,269,583,1553
9.793248,55,503,1926
9.798248,110,571,2012
9.803103,178,660,1706
9.807958,78,889,1428
9.812958,-168,994,1421
9.817812,-402,908,1523
9.822667,-584,926,1535
9.827667,-661,992,1387
9.832522,-602,1015,1256
9.837377,-374,1019,1015
9.842377,123,903,626
9.847231,485,789,732
9.852086,491,823,1082
9.857086,403,996,962
9.861941,246,1326,621
9.866796,74,1615,494
9.871796,21,1630,492
9.876650,-18,1560,539
9.881505,-93,1626,642
9.886505,-192,1694,583
9.891360,-399,1851,391
9.896215,-458,2010,117
9.901215,-275,1930,-134
9.906069,-143,1833,-154
9.910924,17,1687,-229
9.915924,228,1558,-513
9.920779,223,1735,-697
9.925633,141,1896,-791
9.930633,180,1821,-954
9.935488,130,1815,-947
9.940343,-129,1912,-783
9.945343,-447,2078,-734
9.950198,-583,2231,-868
9.955052,-499,2155,-952
9.960052,-452,1894,-831
9.964907,-302,1644,-920
9.969762,55,1492,-1334
9.974762,89,1449,-1613
9.979617,60,1539,-1666
9.984471,237,1553,-1811
9.989471,94,1469,-1784
9.994326,-27,1424,-1561
9.999211,-15,1401,-1681
10.4211,-311,1539,-1745
10.9036,-343,1514,-1686
10.13921,-49,1158,-1936
10.18921,-88,957,-1984
10.23776,-84,865,-2234
10.28630,-99,1007,-2736
10.33630,-299,1069,-2438
10.38485,-136,587,-2084
10.43340,-165,558,-2272
10.48340,-354,817,-2341
10.53195,-195,769,-2441
10.58049,-197,578,-2413
10.63049,-100,7,-1854
10.67904,-92,151,-1865
10.72759,-386,698,-2375
10.77759,-238,237,-2309
10.82613,-183,-309,-1948
10.87468,-281,-654,-1525
10.92468,-90,-952,-1459
10.97323,-145,-1091,-1815
10.102178,-295,-1352,-2172
10.107178,-399,-1402,-2984
10.112032,-363,-1970,-4011
10.116887,-113,-2668,-4357
10.121887,-38,-2109,-3513
10.126742,16,-1336,-1920
10.131597,207,-940,-997
10.136597,366,-950,-791
10.141451,401,-1506,-793
10.146337,410,-2082,-1068
10.151337,321,-2461,-1336
10.156191,103,-2482,-1315
10.161046,7,-2263,-1088
10.166046,-86,-2106,-1129
10.170901,-297,-2061,-1240
10.175756,-325,-2306,-1166
10.180756,-186,-2511,-1386
10.185610,-168,-2195,-1600
10.190465,-231,-1873,-1259
10.195465,-183,-1904,-688
10.200320,-93,-2015,-447
10.205175,-22,-2045,-472
10.210175,57,-2243,-217
10.215029,-9,-2625,73
10.219884,-224,-1897,-208
10.224884,-270,-1249,230
10.229739,49,-2227,957
10.234593,189,-2215,139
10.239593,33,-1932,-40
10.244448,7,-2479,517
10.249303,-200,-2190,424
10.254303,-333,-2025,760
10.259158,-208,-1938,946
10.264012,-181,-1643,862
10.269012,-165,-1593,967
10.273867,-158,-1536,980
10.278722,-152,-1577,992
10.283722,-175,-1532,1012
10.288607,-165,-1606,1182
10.293462,-108,-1575,1164
10.298462,-131,-1282,1058
10.303317,-113,-1338,1305
10.308171,-33,-1334,1331
10.313171,5,-1031,1219
10.318026,0,-936,1344
10.322881,7,-1022,1446
10.327881,55,-1018,1483
10.332736,49,-874,1473
10.337590,-120,-722,1333
10.342590,-186,-763,1280
10.347445,-150,-906,1364
10.352300,-288,-838,1264
10.357300,-320,-600,1174
10.362154,-422,-461,1319
10.367009,-681,-427,1383
10.372009,-725,-461,1440
10.376864,-731,-509,1828
10.381719,-581,-420,2115
10.386719,-299,-161,1769
10.391573,-183,260,1506
10.396428,-90,519,1555
10.401428,80,291,1796
10.406283,280,-102,2405
10.411138,157,-31,2165
10.416138,-17,578,1439
10.421023,-58,1015,1485
10.425878,-293,969,1701
10.430878,-263,817,1814
10.435732,-175,724,1928
10.440587,-327,723,1978
10.445587,-397,871,1922
10.450442,-393,973,1690
10.455297,-225,940,1526
10.460297,55,774,1530
10.465151,187,535,1567
10.470006,167,489,1630
10.475006,76,635,1544
10.479861,-36,869,1317
10.484716,-134,1065,1199
10.489716,-234,1067,1264
10.494570,-297,1062,1431
10.499425,-136,1083,1326
10.504425,199,1094,896
10.509280,387,1201,742
10.514134,205,1249,1028
10.519134,-88,1376,1237
10.523651,-309,1624,1065
10.528903,-492,1762,767
10.533757,-317,1764,562
10.538757,-65,1578,512
10.543612,-93,1462,646
10.548467,5,1519,519
10.553467,216,1598,105
10.558321,319,1671,-150
10.563176,317,1637,-238
10.568176,44,1651,-79
10.573031,-345,1889,21
10.577886,-465,2126,-222
10.582886,-317,2117,-404
10.587740,-133,1912,-483
10.592257,-36,1765,-527
10.597478,-59,1778,-549
10.602478,-202,1883,-616
10.607333,-238,2017,-731
10.612187,-136,2008,-847
10.617187,-147,1853,-761
10.622073,-170,1826,-693
10.626927,-149,1928,-840
10.631927,-61,1889,-1079
10.636782,98,1749,-1222
10.641637,101,1690,-1099
10.646637,76,1578,-1104
10.651492,49,1540,-1311
10.656346,-74,1660,-1359
10.661346,-108,1626,-1486
10.666201,-131,1548,-1618
10.671056,-49,1369,-1654
10.676056,-15,1198,-1832
10.680911,-250,1276,-1754
10.685765,-140,1060,-1806
10.690765,-52,923,-2286
10.695620,-311,1117,-2340
10.700475,-236,840,-2343
10.705475,-274,640,-2391
10.710330,-413,714,-2254
10.715184,-309,683,-2554
10.720184,-468,832,-2482
10.725039,-372,687,-2045
10.729894,-74,523,-2384
10.734894,-254,776,-2686
10.739748,-222,628,-2427
10.744603,37,196,-1997
10.749603,-25,69,-1561
10.754458,-72,180,-2072
10.759313,-167,385,-2843
10.764313,-245,187,-2197
10.769167,-238,-443,-1440
10.774022,-388,-958,-1306
10.779022,-284,-1147,-1165
10.783877,-154,-1457,-1652
10.788732,-240,-1640,-2098
10.793732,-429,-1631,-2927
10.798617,-556,-2766,-4666
10.803472,-317,-2679,-4639
10.808472,-25,-1477,-2784
10.813326,151,-1824,-1447
10.818181,196,-1241,-945
10.823181,301,-575,-459
10.828036,507,-1718,-138
10.832891,416,-2436,-709
10.837891,291,-2181,-1291
10.842745,244,-2232,-966
10.847600,41,-2627,-881
10.852600,-179,-2413,-1341
10.857455,-386,-2191,-1097
10.862310,-443,-2418,-793
10.867310,-286,-2197,-1147
10.872164,-136,-2098,-1291
10.877019,-95,-1965,-1522
10.882019,-29,-1729,-1238
10.886874,74,-2200,-327
10.891728,-29,-1900,-445
10.896728,-88,-1815,-149
10.901583,-34,-2782,649
10.906438,-315,-2147,201
10.911438,-336,-1457,249
10.916293,198,-2359,919
10.921147,339,-2331,503
10.926147,71,-1786,180
10.931002,41,-2248,578
10.935857,42,-2200,474
10.940857,-158,-1740,460
10.945712,-304,-2025,933
10.950566,-417,-1977,807
10.955566,-449,-1540,660
10.960452,-300,-1684,953
10.965306,-202,-1873,901
10.970306,-124,-1625,765
10.975161,-2,-1438,907
10.980016,0,-1493,1053
10.985016,-40,-1482,1158
10.989871,-90,-1332,1278
10.994725,-193,-1281,1460
10.999725,-277,-1274,1574
11.4580,-229,-1250,1581
11.9435,-115,-1159,1523
11.14435,-190,-975,1467
11.19289,-304,-1065,1578
11.24144,-295,-1131,1540
11.29144,-243,-929,1401
11.33999,-127,-781,1294
11.38854,-45,-754,1190
11.43854,-8,-868,1351
11.48708,-117,-879,1383
11.53563,-447,-649,1274
11.58563,-495,-538,1423
11.63418,-399,-506,1323
11.68273,-465,-354,1558
11.73273,-370,-438,2076
11.78127,-186,-608,1749
11.82982,-50,-279,1523
11.87982,67,173,1631
11.92837,-6,328,1665
11.97692,-190,299,1949
11.102692,-152,-2,2021
11.107546,-311,-54,1931
11.112401,-722,560,1869
11.117401,-816,1012,1642
11.122256,-592,908,1544
11.127111,-167,615,1644
11.132111,183,408,1839
11.136996,312,358,2021
11.141851,299,410,1937
11.146851,110,591,1815
11.151705,-125,774,1876
11.156560,-290,782,1824
11.161560,-374,757,1680
11.166415,-238,764,1576
11.171269,-143,715,1599
11.176269,-236,685,1756
11.181124,-249,744,1765
11.185979,-281,865,1633
11.190979,-302,958,1523
11.195834,-158,983,1339
11.200688,26,987,1171
11.205688,116,964,1203
11.210543,87,1003,1264
11.215398,66,1183,1199
11.220398,169,1358,974
11.225253,230,1462,844
11.230107,-63,1499,1142
11.235107,-467,1583,1415
11.239962,-470,1746,1083
11.244847,-484,1831,696
11.249847,-690,1840,726
11.254672,-320,1585,551
11.259557,235,1280,374
11.264557,291,1303,510
11.269412,264,1483,283
11.274266,316,1708,-209
11.279266,339,1767,-442
11.284121,187,1644,-258
11.288976,-231,1748,205
11.293976,-442,2115,269
11.298831,-402,2346,-18
11.303685,-431,2255,-17
11.308685,-279,1972,-67
11.313540,32,1749,-300
11.318395,210,1692,-411
11.323395,266,1744,-456
11.328249,198,1856,-459
11.333104,91,1939,-481
11.338104,-31,2005,-475
11.342989,-193,2069,-442
11.347844,-236,2053,-513
11.352844,-177,1969,-661
11.357699,-24,1853,-886
11.362554,182,1673,-1125
11.367554,160,1573,-1166
11.372408,85,1530,-1220
11.377263,71,1492,-1313
11.382263,-20,1514,-1329
11.386780,-75,1528,-1491
11.392031,-179,1587,-1631
11.396886,-343,1615,-1622
11.401886,-309,1474,-1615
11.406741,-197,1305,-1782
11.411595,-309,1294,-1893
11.416595,-284,1144,-1813
11.421450,-111,946,-2025
11.426305,-275,1026,-2282
11.431305,-275,865,-2356
11.436160,-127,640,-2309
11.441014,-249,701,-2122
11.446014,-245,735,-2207
11.450869,-272,732,-2161
11.455724,-456,721,-2047
11.460724,-477,733,-2300
11.465609,-263,610,-2538
11.470464,-225,615,-2825
11.475464,-361,655,-2384
11.480319,21,157,-2043
11.485173,42,203,-2568
11.490173,-258,342,-2107
11.495028,110,-472,-1782
11.499883,167,-938,-1870
11.504883,-22,-866,-1231
11.509737,-75,-702,-959
11.514592,-152,-795,-927
11.519592,32,-1743,-852
11.524109,-83,-2291,-1290
11.529360,-659,-1156,-2206
11.534215,-454,-1702,-4302
11.539215,430,-4436,-5361
11.544070,330,-3391,-2714
11.548925,-172,-474,-625
11.553925,116,-833,-6
11.558779,383,-963,198
11.563634,266,-54,-865
11.568634,269,-1195,-927
11.573489,292,-1977,-1147
11.578343,160,-1461,-2047
11.583343,78,-1486,-1757
11.588229,0,-1281,-1529
11.593083,-122,-1004,-1725
11.598083,-138,-1272,-1625
11.602938,-133,-1274,-1691
11.607793,-145,-1215,-1891
11.612793,-68,-1472,-1902
11.617648,16,-1484,-1841
11.622502,46,-1324,-1650
11.627502,66,-1284,-1322
11.632357,49,-1209,-1102
11.637212,39,-1211,-1027
11.642212,48,-1331,-1056
11.647067,23,-1459,-1202
11.651921,1,-1547,-1434
11.656921,7,-1575,-1545
11.661776,3,-1516,-1463
11.666631,5,-1359,-1402
11.671631,-18,-1234,-1391
11.676486,-38,-1232,-1400
11.681340,32,-1247,-1468
11.686340,8,-1206,-1566
11.691195,-72,-1422,-1524
11.696050,-88,-1590,-1468
11.701050,-95,-1354,-1497
11.705935,-36,-1302,-1372
11.710790,3,-1422,-1282
11.715790,-4,-1413,-1338
11.720644,17,-1416,-1391
11.725499,30,-1425,-1447
11.730499,19,-1341,-1495
11.735354,32,-1199,-1529
11.740209,76,-1191,-1565
11.745209,83,-1236,-1622
11.750063,24,-1179,-1677
11.754918,7,-1150,-1670
11.759918,26,-1197,-1624
11.764773,49,-1286,-1586
11.769628,42,-1213,-1611
11.774628,-13,-1259,-1470
11.779482,180,-2202,-925
11.784337,339,-3047,-868
11.789337,62,-3034,-1654
11.794192,-149,-3088,-2152
11.799047,-195,-2943,-1875
11.804047,-340,-2298,-1554
11.808901,-458,-2095,-1690
11.813756,-561,-2422,-1847
11.818756,-733,-2297,-1998
11.823611,-891,-2093,-2088
11.828466,-1102,-2272,-2002
11.833466,-1320,-2411,-2184
11.838351,-1418,-2700,-2409
11.843175,-1449,-2938,-2323
11.848175,-1399,-2986,-1941
11.853060,-1318,-3000,-1466
11.857915,-1225,-3082,-1231
11.862915,-1125,-3357,-1163
11.867770,-1088,-3434,-1018
11.872624,-1052,-3280,-818
11.877624,-1038,-3232,-743
11.882479,-1016,-3266,-888
11.887334,-956,-3323,-1200
11.892334,-952,-3486,-1534
11.897189,-958,-3555,-1704
11.902043,-863,-3298,-1704
11.907043,-675,-2975,-1657
11.911898,-508,-2739,-1602
11.916753,-434,-2575,-1507
11.921753,-438,-2664,-1420
11.926608,-467,-2857,-1522
11.931462,-420,-2836,-1741
11.936462,-227,-2622,-1765
11.941317,-34,-2277,-1763
11.946172,14,-2091,-1873
11.951172,-13,-2181,-1879
11.956027,-79,-2200,-1848
11.960881,-197,-2211,-1841
11.965881,-381,-2331,-1923
11.970736,-570,-2341,-1988
11.975591,-690,-2159,-1859
11.980591,-763,-2086,-1763
11.985446,-818,-2141,-1749
11.990300,-881,-2057,-1682
11.995300,-968,-2036,-1649
12.155,-1116,-2127,-1670
12.5010,-1254,-2138,-1563
12.10010,-1315,-2057,-1395
12.14864,-1341,-1968,-1381
12.19719,-1249,-1879,-1382
12.24719,-1031,-1602,-1286
12.29574,-850,-1274,-1311
12.34459,-715,-1168,-1513
12.39459,-599,-1102,-1574
12.44314,-538,-959,-1440
12.49169,-550,-933,-1382
12.54169,-618,-1113,-1504
12.59023,-690,-1322,-1700
12.63878,-745,-1450,-1809
12.68878,-791,-1511,-1774
12.73733,-840,-1474,-1609
12.78588,-890,-1382,-1322
12.83588,-915,-1250,-1079
12.88442,-861,-1084,-999
12.93297,-743,-954,-995
12.98297,-604,-816,-1018
12.103152,-477,-681,-1031
12.108007,-445,-586,-1052
12.113007,-420,-479,-1122
12.117861,-354,-395,-1197
12.122716,-340,-363,-1272
12.127716,-345,-375,-1372
12.132233,-349,-445,-1459
12.137484,-372,-543,-1500
12.142339,-386,-615,-1490
12.147339,-399,-611,-1434
12.152194,-420,-584,-1354
12.157048,-449,-568,-1236
12.162048,-534,-536,-1109
12.166903,-652,-531,-1065
12.171758,-720,-525,-1104
12.176758,-770,-542,-1177
12.181612,-779,-575,-1236
12.186467,-745,-500,-1288
12.191467,-745,-431,-1309
12.196322,-752,-418,-1270
12.201177,-722,-383,-1174
12.206177,-670,-406,-1077
12.211031,-602,-479,-1033
12.215886,-556,-586,-1002
12.220886,-534,-733,-1016
12.225741,-534,-770,-1143
12.230596,-509,-1009,-1056
12.235596,-320,-924,-1133
12.240450,-43,-161,-2061
12.245305,278,-383,-1934
12.250305,-390,-245,-1009
12.255160,-1156,1148,-1532
12.260015,-443,1310,-1711
12.265015,-443,-152,-1813
12.269869,-1365,-2072,-2850
12.274724,-1582,-1956,-2754
12.279724,-1481,-759,-881
12.284579,-1456,-1040,524
12.289434,-1229,-833,-472
12.294434,-961,-472,-999
12.299288,-806,-943,-434
12.304143,-704,-1009,-700
12.309143,-818,-983,-786
12.313998,-895,-1243,-697
12.318852,-708,-1586,-1000
12.323852,-354,-1622,-1152
12.328707,-272,-983,-886
12.333562,-622,-713,-652
12.338562,-843,-1482,-829
12.343447,-850,-1695,-1325
12.348271,-829,-1541,-1743
12.353271,-752,-1556,-1934
12.358157,-736,-622,-1456
12.363011,-736,-511,-1463
12.368011,-674,-1286,-2536
12.372866,-611,-877,-2400
12.377721,-543,-522,-1738
12.382721,-429,-690,-1674
12.387576,-259,-599,-1774
12.392430,-11,-531,-1559
12.397430,166,-481,-1158
12.402285,71,-656,-1640
12.407140,-84,-700,-1941
12.412140,-125,-359,-1650
12.416995,-200,-400,-1888
12.421849,-277,-522,-2211
12.426849,-311,-449,-2300
12.431704,-361,-533,-2393
12.436559,-404,-643,-2432
12.441559,-524,-647,-2445
12.446414,-634,-765,-2354
12.451268,-572,-804,-2366
12.456268,-697,-563,-2365
12.461123,-765,-649,-2227
12.465978,-388,-668,-2331
12.470978,-333,-250,-2127
12.475832,-567,-199,-1906
12.480687,-567,-142,-2141
12.485687,-470,135,-1988
12.490542,-434,141,-2198
12.495397,-481,192,-2225
12.500397,-472,307,-1520
12.505251,-122,196,-1584
12.510106,64,19,-1866
12.515106,-168,57,-1741
12.519639,-90,141,-1440
12.524521,-33,46,-1416
12.529773,-124,3,-1649
12.534628,-83,105,-1525
12.539628,-106,160,-1311
12.544482,-90,130,-1356
12.549337,-50,80,-1407
12.554337,-100,96,-1349
12.559192,-120,144,-1381
12.564047,-38,51,-1340
12.569047,-79,-47,-1257
12.573901,-188,-75,-1347
12.578756,-183,-136,-1404
12.583756,-68,5,-1343
12.588611,-93,-133,-1382
12.593466,-215,-20,-1454
12.598466,57,185,-1456
12.603320,-452,-1561,-1511
12.608175,-788,-1861,-1204
12.613175,164,146,-804
12.618030,-127,394,-800
12.622884,-724,-122,-972
12.627884,-447,117,-1090
12.632739,-361,662,-788
12.637594,-281,430,-1106
12.642594,-347,-506,-2045
12.647479,-499,-613,-1774
12.652334,-215,-243,-1058
12.657334,-245,-331,-1438
12.662189,-590,-518,-2082
12.667043,-172,-358,-1720
12.672043,-9,-40,-1020
12.676898,-183,103,-1368
12.681753,-179,-213,-1931
12.686753,-415,-549,-1816
12.691608,-115,-202,-1686
12.696462,71,137,-1452
12.701462,-517,-224,-1584
12.706317,-442,-579,-2620
12.711172,0,-367,-2725
12.716172,-252,-47,-1590
12.721027,-388,149,-1688
12.725881,-118,280,-2497
12.730881,-17,42,-2038
12.735736,-2,-249,-1745
12.740591,69,-284,-2115
12.745591,-17,-408,-1852
12.750446,-359,-766,-1754
12.755300,-436,-1229,-1898
12.760300,64,-1300,-1363
12.765155,417,-983,-1463
12.770010,285,-709,-2227
12.775010,85,-284,-1911
12.779895,116,69,-1699
12.784750,162,-133,-2273
12.789750,-31,-359,-2179
12.794604,-154,-336,-1900
12.799459,-106,-511,-1945
12.804459,-175,-704,-1731
12.809314,-240,-638,-1586
12.814169,-168,-700,-1786
12.819169,-115,-777,-1947
12.824023,-29,-467,-2141
12.828878,21,-204,-2464
12.833878,-27,-229,-2398
12.838733,-161,-529,-2309
12.843588,-115,-822,-2447
12.848588,180,-686,-2536
12.853442,144,-454,-2548
12.858297,-24,-440,-2173
12.863297,194,-475,-2036
12.868152,299,-281,-1947
12.873007,-284,-242,-1406
12.878007,-999,-477,-1354
12.882861,-765,-729,-1581
12.887747,71,-974,-1482
12.892747,137,-738,-1465
12.897233,-304,-297,-1752
12.902484,-352,-350,-1898
12.907339,-233,-661,-1820
12.912339,-165,-850,-1852
12.917194,-122,-970,-1990
12.922079,-197,-1015,-1988
12.927079,-247,-1009,-1909
12.931934,-302,-884,-1882
12.936788,-400,-731,-1697
12.941788,-231,-838,-1640
12.946643,-34,-650,-1895
12.951498,-77,-447,-1875
12.956498,1,-815,-1772
12.961352,183,-943,-1895
12.966207,142,-806,-1922
12.971207,21,-768,-1845
12.976062,-8,-666,-1791
12.980917,-42,-565,-1797
12.985917,-115,-427,-1809
12.990771,-267,-384,-1809
12.995626,-429,-504,-1743
13.626,-465,-483,-1611
13.5481,-459,-331,-1527
13.10336,-492,-274,-1566
13.15336,-531,-349,-1731
13.20190,-556,-490,-1922
13.25045,-502,-511,-2013
13.30045,-447,-370,-1959
13.34930,-518,-315,-1881
13.39755,-624,-397,-1850
13.44755,-616,-465,-1782
13.49640,-552,-447,-1650
13.54495,-520,-409,-1577
13.59495,-442,-467,-1663
13.64349,-418,-525,-1650
13.69204,-356,-550,-1847
13.74204,-175,-492,-2200
13.79059,-325,-329,-1827
13.83914,-417,-495,-1786
13.88914,-245,-713,-2318
13.93768,-288,-542,-2261
13.98623,-240,-474,-2150
13.103623,-199,-549,-2127
13.108478,-384,-456,-1847
13.113332,-193,-486,-2156
13.118332,-18,-665,-2400
13.123187,-322,-659,-1806
13.128042,-347,-631,-1818
13.133042,-220,-681,-2140
13.137897,-249,-704,-2068
13.142751,-304,-631,-2020
13.147751,-399,-570,-1904
13.152606,-413,-665,-1795
13.157491,-436,-670,-1756
13.162491,-493,-581,-1700
13.167346,-497,-581,-1663
13.172201,-483,-567,-1691
13.177201,-475,-540,-1720
13.182056,-467,-567,-1693
13.186910,-422,-620,-1631
13.191910,-336,-683,-1568
13.196765,-279,-661,-1534
13.201620,-290,-584,-1545
13.206620,-300,-572,-1629
13.211475,-300,-561,-1686
13.216329,-292,-547,-1668
13.221329,-252,-575,-1652
13.226184,-220,-552,-1627
13.231039,-152,-606,-1577
13.236039,-129,-700,-1545
13.240894,-100,-611,-1606
13.245748,-18,-795,-1652
13.250748,-77,-1033,-1645
13.255603,-172,-752,-1806
13.260458,-208,-659,-1920
13.265458,-284,-799,-1863
13.270312,-300,-775,-1865
13.275198,-188,-722,-1784
13.280198,-268,-729,-1866
13.285052,-554,-1041,-2231
13.289907,-656,-943,-2191
13.294907,-540,-147,-1859
13.299762,-295,132,-1736
13.304617,-142,-133,-1820
13.309617,-190,-193,-2084
13.314471,-222,-256,-2273
13.319326,-247,-402,-2218
13.324326,-272,-313,-2140
13.329181,-270,-125,-2165
13.334036,-349,-208,-2086
13.339036,-377,-379,-1959
13.343890,-361,-215,-2070
13.348745,-429,-161,-2227
13.353745,-479,-334,-2261
13.358600,-502,-288,-2238
13.363455,-518,-200,-2109
13.368455,-499,-227,-1943
13.373309,-504,-313,-1952
13.378164,-490,-386,-2041
13.383164,-372,-543,-1950
13.388049,-372,-593,-1929
13.392904,-479,-509,-2113
13.397904,-459,-561,-2122
13.402759,-461,-452,-1972
13.407613,-450,-347,-1856
13.412613,-386,-452,-1795
13.417468,-388,-461,-1870
13.422323,-384,-438,-1934
13.427323,-356,-447,-1922
13.432178,-356,-429,-1947
13.437032,-358,-425,-1948
13.442032,-367,-443,-1859
13.446887,-384,-467,-1754
13.451742,-379,-434,-1745
13.456742,-375,-374,-1795
13.461597,-372,-386,-1802
13.466451,-361,-452,-1809
13.471451,-333,-434,-1841
13.476306,-306,-445,-1784
13.481161,-345,-472,-1752
13.486161,-309,-245,-1756
13.491016,-334,-713,-1588
13.495870,-531,-833,-1965
13.500870,-417,228,-2420
13.505725,-292,-200,-2018
13.510610,-395,-836,-1793
13.515610,-365,-375,-1788
13.520096,-377,-486,-1666
13.525348,-424,-627,-1729
13.530203,-443,-481,-1738
13.535203,-504,-408,-1729
13.540088,-481,-333,-1766
13.544912,-392,-358,-1736
13.549912,-347,-392,-1768
13.554797,-342,-454,-1834
13.559652,-325,-486,-1791
13.564652,-361,-370,-1891
13.569507,-372,-549,-2107
13.574362,-329,-772,-2041
13.579362,-422,-731,-1825
13.584216,-502,-718,-1732
13.589071,-497,-604,-1757
13.594071,-538,-483,-1791
13.598926,-549,-458,-1763
13.603780,-522,-442,-1747
13.608780,-468,-483,-1743
13.613635,-393,-495,-1743
13.618490,-381,-474,-1791
13.623490,-350,-500,-1816
13.628345,-295,-538,-1816
13.633199,-304,-554,-1807
13.638199,-286,-622,-1804
13.642716,-320,-734,-1816
13.647629,-481,-641,-1806
13.652881,-556,-338,-1731
13.657736,-479,-245,-1675
13.662736,-381,-427,-1716
13.667590,-345,-542,-1774
13.672445,-327,-525,-1815
13.677445,-270,-527,-1797
13.682300,-236,-442,-1840
13.687154,-288,-290,-1975
13.692154,-308,-320,-1998
13.697009,-297,-400,-1981
13.701864,-336,-388,-1947
13.706864,-336,-438,-1906
13.711719,-340,-531,-1990
13.716604,-381,-595,-2029
13.721604,-313,-595,-2000
13.726459,-261,-547,-2106
13.731313,-388,-563,-2075
13.736313,-511,-531,-1927
13.741168,-602,-402,-1982
13.746023,-697,-220,-2015
13.751023,-709,-13,-1959
13.755878,-568,87,-1963
13.760732,-352,-17,-2007
13.765732,-240,-302,-2018
13.770587,-193,-524,-2004
13.775442,-268,-500,-2093
13.780442,-393,-374,-2193
13.785297,-408,-272,-2200
13.790151,-488,-217,-2184
13.795151,-554,-308,-2145
13.800006,-484,-442,-2047
13.804861,-504,-436,-1997
13.809861,-533,-408,-2011
13.814716,-495,-406,-1907
13.819601,-520,-400,-1804
13.824601,-470,-288,-1720
13.829456,-472,-390,-1679
13.834310,-515,-629,-1998
13.839310,-365,-418,-2020
13.844165,-250,-281,-1593
13.849020,-265,-277,-1600
13.854020,-249,-211,-1784
13.858874,-181,-281,-1740
13.863729,-170,-250,-1749
13.868729,-224,-274,-1768
13.873584,-245,-261,-1738
13.878439,-252,-109,-1750
13.883439,-217,-213,-1800
13.888293,-218,-47,-2002
13.893148,-242,312,-1752
13.898148,-213,123,-1774
13.903003,-263,-249,-2504
13.907858,-361,-579,-1984
13.912858,-520,-1050,-2388
13.917712,-281,-1500,-3391
13.922567,-377,-1245,-1898
13.927567,-1031,-618,-1058
13.932422,-750,-545,-1531
13.937307,-345,-568,-1636
13.942307,-474,-338,-1959
13.947162,-465,-275,-2165
13.952017,-379,-363,-2168
13.957017,-409,-406,-2093
13.961871,-461,-409,-1904
13.966726,-238,-177,-1859
13.971726,-72,110,-1525
13.976581,-292,-17,-1147
13.981435,-393,-284,-1427
13.986435,-375,-356,-1702
13.991290,-529,-442,-1597
13.996145,-624,-520,-1600
14.1145,-643,-493,-1711
14.6000,-658,-538,-1752
14.10854,-654,-552,-1816
14.15854,-766,-502,-1888
14.20709,-852,-554,-1913
14.25564,-840,-584,-1909
14.30564,-802,-641,-1875
14.35419,-788,-684,-1884
14.40273,-791,-659,-1940
14.45273,-666,-729,-1879
14.50128,-636,-699,-1756
14.55013,-699,-602,-1716
14.60013,-645,-572,-1682
14.64868,-656,-554,-1659
14.69723,-715,-559,-1661
14.74723,-718,-543,-1675
14.79578,-713,-554,-1668
14.84432,-693,-565,-1599
14.89432,-649,-561,-1581
14.94287,-584,-524,-1590
14.99142,-517,-438,-1527
14.104142,-465,-397,-1488
14.108997,-458,-440,-1488
14.113851,-483,-550,-1463
14.118851,-468,-654,-1425
14.123706,-349,-640,-1431
14.128561,-309,-604,-1457
14.133561,-454,-666,-1465
14.138415,-520,-677,-1511
14.143270,-518,-659,-1563
14.148270,-534,-684,-1674
14.153155,-474,-640,-1774
14.158010,-445,-595,-1720
14.163010,-511,-616,-1711
14.167865,-511,-675,-1761
14.172720,-484,-740,-1774
14.177720,-509,-743,-1822
14.182574,-513,-704,-1872
14.187429,-511,-652,-1893
14.192429,-509,-659,-1916
14.197284,-618,-638,-1834
14.202139,-718,-474,-1750
14.207139,-597,-349,-1938
14.211993,-802,-309,-1740
14.216848,-1256,-511,-1147
14.221848,-1134,-550,-1193
14.226703,-872,-145,-1393
14.231558,-938,-86,-1274
14.236558,-943,-272,-1240
14.241412,-841,-283,-1261
14.246267,-879,-375,-1211
14.251267,-908,-525,-1124
14.256122,-779,-584,-1158
14.260977,-720,-620,-1199
14.265977,-706,-656,-1133
14.270831,-656,-668,-1093
14.275686,-650,-625,-1047
14.280686,-599,-663,-988
14.285541,-508,-749,-945
14.290426,-527,-713,-833
14.295426,-588,-718,-727
14.300281,-604,-856,-681
14.305135,-629,-959,-616
14.310135,-647,-945,-597
14.314990,-575,-1049,-679
14.319845,-506,-908,-672
14.324845,-615,-329,-597
14.329700,-733,-318,-647
14.334554,-652,-781,-820
14.339554,-456,-1100,-1133
14.344409,-329,-1415,-1388
14.349264,-377,-1561,-1349
14.354264,-504,-1574,-1252
14.359119,-495,-1681,-1259
14.363973,-302,-1724,-1288
14.368973,-215,-1693,-1302
14.373828,-292,-1731,-1302
14.378683,-272,-1772,-1309
14.383683,-224,-1809,-1336
14.388538,-258,-1820,-1400
14.393054,-277,-1749,-1416
14.398306,-277,-1668,-1388
14.403306,-336,-1581,-1411
14.408160,-409,-1524,-1477
14.413015,-458,-1536,-1540
14.418015,-579,-1507,-1552
14.422870,-681,-1407,-1609
14.427725,-720,-1332,-1693
14.432725,-802,-1311,-1663
14.437579,-833,-1274,-1611
14.442434,-872,-1288,-1581
14.447434,-1034,-1281,-1475
14.452289,-1131,-1141,-1363
14.457144,-1100,-1083,-1399
14.462144,-1058,-1086,-1436
14.466998,-990,-1036,-1418
14.471853,-1013,-1054,-1506
14.476853,-1090,-1165,-1491
14.481708,-979,-1268,-1349
14.486593,-838,-1302,-1407
14.491593,-840,-1316,-1431
14.496448,-804,-1259,-1270
14.501302,-786,-1236,-1331
14.506302,-752,-1374,-1286
14.511157,-595,-1322,-1025
14.515919,-647,-1134,-1000
14.520527,-768,-1093,-1027
14.525779,-868,-1122,-927
14.530779,-947,-1033,-881
14.535633,-1038,-970,-858
14.540519,-1445,-1111,-509
14.545519,-1336,-1140,-827
14.550373,-961,-1129,-1334
14.555228,-1134,-1316,-559
14.560228,-997,-1513,-606
14.565083,-1020,-1406,-1366
14.569938,-1586,-1349,-884
14.574938,-1681,-1765,-552
14.579792,-1659,-2048,-929
14.584647,-1832,-1968,-1006
14.589647,-1897,-1872,-952
14.594502,-2038,-1786,-1015
14.599357,-2140,-1813,-1083
14.604357,-2059,-1875,-1149
14.609211,-1929,-1784,-1083
14.614066,-1475,-1975,-1083
14.619066,-1520,-1529,-947
14.623921,-1516,-1415,-811
14.628776,8,-3111,-1259
14.633776,-90,-2514,-958
14.638630,-1272,-929,-638
14.643485,-716,-1299,-883
14.648485,-659,-1179,-425
14.653340,-802,-1395,-1706
14.658225,-463,-1631,-2166
14.663225,-1047,-1041,-50
14.668049,-1356,-688,-395
14.672935,-1029,-465,-1307
14.677935,-1025,-504,-718
14.682789,-1006,-593,-797
14.687644,-1054,-811,-1122
14.692644,-1327,-1213,-1100
14.697499,-1561,-1350,-1063
14.702353,-1657,-1404,-1075
14.707353,-1750,-1320,-1168
14.712208,-1829,-1009,-1379
14.717063,-1640,-833,-1593
14.722063,-1288,-845,-1754
14.726918,-1033,-836,-1625
14.731772,-833,-818,-1329
14.736772,-609,-966,-1350
14.741627,-561,-1174,-1293
14.746482,-649,-1286,-1243
14.751482,-641,-1343,-1388
14.756337,-552,-1324,-1290
14.761191,-527,-1281,-1282
14.766191,-529,-1309,-1366
14.771046,-372,-1334,-1324
14.775901,-449,-1545,-1456
14.780901,-725,-1881,-1375
14.785786,-724,-1756,-1363
14.790641,-818,-1525,-1656
14.795641,-1004,-1579,-1424
14.800496,-990,-1609,-1284
14.805350,-977,-1599,-1366
14.810350,-1059,-1588,-1186
14.815205,-1179,-1625,-1295
14.820060,-1166,-1741,-1329
14.825060,-1077,-1795,-1043
14.829914,-1100,-1791,-1052
14.834769,-1038,-1750,-1238
14.839769,-822,-1688,-1379
14.844624,-765,-1674,-1540
14.849479,-888,-1663,-1636
14.854479,-986,-1682,-1668
14.859333,-1029,-1699,-1675
14.864188,-1036,-1649,-1568
14.869188,-1034,-1656,-1361
14.874043,-1079,-1699,-1224
14.878928,-1152,-1675,-1218
14.883928,-1143,-1597,-1266
14.888783,-1040,-1545,-1318
14.893638,-947,-1554,-1354
14.898638,-881,-1543,-1350
14.903492,-870,-1590,-1290
14.908347,-886,-1668,-1247
14.913347,-859,-1593,-1270
14.918202,-859,-1543,-1281
14.923057,-911,-1591,-1245
14.928057,-979,-1565,-1224
14.932911,-977,-1541,-1232
14.937766,-900,-1577,-1215
14.942766,-924,-1663,-1154
14.947621,-997,-1786,-1108
14.952476,-979,-1820,-1120
14.957476,-968,-1799,-1136
14.962330,-990,-1791,-1109
14.967185,-975,-1725,-1145
14.972185,-981,-1650,-1211
14.977040,-1000,-1622,-1193
14.981894,-1002,-1588,-1216
14.986894,-1004,-1572,-1284
14.991749,-1020,-1591,-1259
14.996604,-1033,-1643,-1291
15.1604,-1040,-1709,-1390
15.6459,-1052,-1740,-1415
15.11313,-1074,-1765,-1406
15.16313,-1118,-1804,-1391
15.21168,-1145,-1813,-1400
15.26053,-1179,-1754,-1370
15.31053,-1236,-1734,-1336
15.35908,-1240,-1765,-1409
15.40763,-1179,-1659,-1350
15.45763,-1111,-1540,-1199
15.50618,-1091,-1540,-1231
15.55472,-1052,-1516,-1299
15.60472,-963,-1468,-1293
15.65327,-920,-1413,-1284
15.70182,-938,-1359,-1270
15.75182,-956,-1354,-1236
15.80037,-933,-1379,-1193
15.84891,-861,-1456,-1174
15.89891,-809,-1561,-1168
15.94746,-822,-1631,-1136
15.99601,-847,-1632,-1133
15.104601,-884,-1606,-1143
15.109117,-940,-1588,-1109
15.114369,-1000,-1581,-1100
15.119224,-1058,-1597,-1165
15.124224,-1061,-1620,-1263
15.129078,-1075,-1627,-1322
15.133933,-1091,-1634,-1299
15.138933,-1066,-1616,-1297
15.143788,-1061,-1574,-1352
15.148643,-988,-1718,-1245
15.153643,-925,-1941,-1156
15.158497,-975,-1847,-1279
15.163352,-950,-1656,-1241
15.168352,-911,-1593,-1116
15.173207,-958,-1518,-1111
15.178061,-925,-1424,-1093
15.183061,-802,-1395,-1043
15.187916,-733,-1407,-991
15.192771,-686,-1365,-949
15.197771,-593,-1274,-916
15.202626,-522,-1191,-940
15.207480,-449,-1159,-972
15.212480,-354,-1216,-963
15.217335,-304,-1411,-970
15.222190,-302,-1581,-936
15.227190,-300,-1652,-913
15.232045,-317,-1716,-927
15.236899,-440,-1654,-954
15.241899,-517,-1682,-1000
15.246754,-518,-1790,-975
15.251609,-697,-1693,-1091
15.256609,-799,-1620,-1236
15.261464,-679,-1613,-1159
15.266349,-583,-1645,-1115
15.271349,-545,-1738,-1145
15.276204,-558,-1772,-1159
15.281058,-570,-1749,-1197
15.286058,-554,-1738,-1195
15.290913,-531,-1766,-1115
15.295768,-542,-1790,-1077
15.300768,-650,-1802,-1090
15.305623,-763,-1793,-1079
15.310477,-845,-1743,-1025
15.315477,-908,-1706,-1022
15.320332,-870,-1656,-1043
15.325187,-816,-1654,-958
15.330187,-793,-1765,-933
15.335041,-743,-1806,-965
15.339896,-661,-1736,-865
15.344896,-640,-1706,-870
15.349751,-697,-1674,-897
15.354606,-724,-1649,-790
15.359606,-781,-1704,-820
15.364460,-841,-1729,-854
15.369315,-834,-1802,-840
15.374315,-820,-1913,-970
15.379170,-781,-1940,-1066
15.384025,-734,-1934,-1129
15.389025,-693,-1877,-1254
15.393879,-504,-1790,-1145
15.398765,-354,-1997,-1131
15.403765,-383,-2338,-1418
15.408619,-243,-2327,-1502
15.413474,-70,-2127,-1443
15.418474,-52,-1897,-1354
15.423329,-70,-1686,-1197
15.428184,-165,-1643,-1008
15.433184,-234,-1700,-868
15.438038,-315,-1797,-806
15.442893,-424,-1947,-761
15.447893,-515,-2002,-774
15.452748,-743,-1879,-736
15.457602,-963,-1774,-700
15.462602,-983,-1759,-758
15.467457,-886,-1716,-752
15.472312,-824,-1763,-756
15.477312,-743,-1854,-813
15.482167,-620,-1845,-829
15.487021,-572,-1856,-859
15.492021,-520,-1861,-872
15.496876,-483,-1845,-872
15.501731,-506,-1831,-877
15.506731,-517,-1790,-840
15.511616,-504,-1793,-809
15.516102,-484,-1824,-797
15.521016,-445,-1838,-779
15.526267,-424,-1888,-752
15.531267,-433,-1891,-693
15.536122,-415,-1873,-641
15.540977,-397,-1931,-658
15.545977,-393,-1975,-615
15.550831,-381,-1957,-565
15.555686,-356,-1932,-643
15.560686,-313,-1918,-697
15.565571,-274,-1915,-711
15.570426,-242,-1931,-727
15.575426,-270,-1922,-715
15.580281,-297,-1904,-690
15.585135,-211,-1900,-684
15.590135,-131,-1890,-697
15.594990,-136,-1915,-665
15.599845,-150,-1957,-615
15.604845,-161,-1948,-584
15.609700,-186,-1940,-534
15.614554,-179,-1965,-515
15.619554,-175,-1952,-552
15.624409,-222,-1915,-572
15.629264,-234,-1913,-563
15.634264,-192,-1941,-565
15.639119,-159,-1931,-556
15.643973,-174,-1959,-492
15.648973,-183,-2009,-434
15.653859,-184,-1957,-433
15.658713,-208,-1948,-418
15.663713,-215,-1977,-400
15.668568,-224,-1936,-442
15.673423,-227,-1943,-527
15.678423,-245,-1990,-574
15.683278,-313,-1998,-577
15.688132,-354,-2004,-552
15.693132,-329,-1991,-542
15.697987,-275,-1923,-608
15.702842,-233,-1890,-627
15.707842,-220,-1945,-543
15.712696,-145,-2013,-536
15.717551,-36,-2004,-592
15.722551,14,-1954,-567
15.727406,76,-1948,-584
15.732261,98,-1991,-649
15.737261,66,-2045,-624
15.742146,80,-2018,-583
15.747001,64,-1950,-572
15.752001,53,-1902,-592
15.756855,83,-1800,-609
15.761710,62,-1775,-647
15.766710,55,-1922,-713
15.771565,57,-1911,-608
15.776420,67,-1918,-509
15.781420,89,-2291,-706
15.786274,-24,-1615,-302
15.791129,205,-2500,-793
15.796129,973,-6005,-1859
15.800984,1337,-4700,648
15.805839,466,-754,1639
15.810839,-300,-263,-679
15.815693,307,-659,-217
15.820548,344,-1238,71
15.825548,-77,-1988,57
15.830433,367,-2488,1539
15.835288,469,-3022,1015
15.840288,207,-2352,310
15.845143,37,-1218,574
15.849998,-59,-950,416
15.854998,39,-1295,367
15.859514,148,-1790,503
15.864766,232,-2081,807
15.869620,296,-2122,937
15.874620,360,-1932,683
15.879475,360,-1572,412
15.884330,398,-1188,383
15.889330,453,-1375,408
15.894185,473,-1743,366
15.899039,526,-1904,871
15.904039,-58,-3439,1005
15.908894,-849,-4039,744
15.913749,-752,-2079,1076
15.918749,-604,-1200,676
15.923603,-766,-1449,239
15.928458,-725,-1345,341
15.933458,-613,-1377,398
15.938313,-565,-1713,728
15.943168,-609,-2275,894
15.948168,-659,-2423,842
15.953022,-663,-1893,723
15.957877,-595,-1404,574
15.962877,-647,-1332,507
15.967732,-761,-1757,648
15.972587,-295,-2756,857
15.977587,469,-3088,1194
15.982441,753,-2425,1449
15.987296,546,-1834,762
15.992296,348,-1240,251
15.997151,351,-877,349
16.2036,412,-1061,317
16.7036,517,-1466,533
16.11891,608,-1952,846
16.16746,657,-2186,1014
16.21746,605,-1961,905
16.26600,444,-1482,648
16.31455,407,-1206,610
16.36455,274,-1599,724
16.41310,-238,-2620,935
16.46164,-641,-3064,1246
16.51164,-683,-2415,1228
16.56019,-697,-1752,769
16.60874,-700,-1356,466
16.65874,-672,-1154,432
16.70729,-665,-1363,512
16.75583,-583,-1816,721
16.80583,-567,-2256,914
16.85438,-484,-2572,1087
16.90293,-31,-2634,901
16.95293,396,-2059,678
16.100148,503,-1547,767
16.105002,449,-1706,548
16.110002,399,-1670,505
16.114857,403,-1557,676
16.119712,424,-1795,576
16.124712,376,-1868,591
16.129567,246,-1829,674
16.134452,192,-1979,614
16.139452,76,-2122,571
16.144307,-283,-2356,585
16.149161,-633,-2497,598
16.154161,-700,-2127,662
16.159016,-643,-1861,526
16.163871,-584,-1927,373
16.168871,-465,-1866,423
16.173726,-318,-1952,492
16.178580,-79,-2384,719
16.183580,237,-2539,851
16.188435,453,-2286,710
16.193290,494,-1972,578
16.198290,460,-1674,421
16.203144,432,-1515,328
16.207999,382,-1607,371
16.212999,366,-1923,505
16.217854,264,-2284,726
16.222709,10,-2454,799
16.227709,-204,-2338,703
16.232563,-345,-2120,560
16.237418,-388,-1982,376
16.242418,-299,-1966,146
16.247273,-77,-2156,174
16.252128,187,-2452,378
16.257128,371,-2529,116
16.261982,508,-2416,35
16.266837,485,-2493,267
16.271837,276,-2332,21
16.276692,137,-2084,49
16.281547,101,-2331,380
16.286547,-2,-2365,549
16.291401,-233,-2418,876
16.296256,-415,-2625,1169
16.301256,-533,-2291,1117
16.306141,-608,-1986,917
16.310996,-549,-1832,783
16.315996,-454,-1609,757
16.320851,-347,-1668,971
16.325706,-229,-1784,1240
16.330706,-184,-1757,1276
16.335560,-202,-1695,1214
16.340415,-231,-1563,1212
16.345415,-267,-1475,1196
16.350270,-263,-1481,1199
16.355124,-240,-1500,1314
16.360124,-222,-1538,1417
16.364979,-152,-1547,1415
16.369834,-109,-1443,1414
16.374834,-115,-1336,1433
16.379689,-45,-1324,1356
16.384543,21,-1299,1299
16.389543,3,-1318,1392
16.394398,-6,-1400,1442
16.399253,-22,-1406,1487
16.404253,-81,-1366,1523
16.409108,-158,-1347,1498
16.413962,-213,-1290,1505
16.418962,-161,-1215,1539
16.423817,-49,-1188,1581
16.428672,53,-1149,1628
16.433672,116,-1109,1660
16.438527,105,-1061,1633
16.443381,55,-1024,1619
16.448381,1,-1024,1664
16.453236,-33,-986,1723
16.458091,-99,-965,1746
16.463091,-199,-991,1751
16.467946,-229,-970,1756
16.472831,-204,-913,1753
16.477831,-143,-890,1771
16.482685,-34,-859,1783
16.487540,53,-825,1803
16.492540,57,-824,1814
16.497395,30,-820,1842
16.502250,73,-768,1853
16.507250,94,-715,1764
16.512104,28,-725,1785
16.516621,0,-686,1910
16.521873,-43,-627,1922
16.526873,-134,-645,1905
16.531727,-161,-625,1915
16.536582,-147,-579,1912
16.541582,-133,-558,1921
16.546437,-34,-525,1921
16.551291,108,-495,1910
16.556291,174,-483,1914
16.561146,174,-443,1883
16.566001,137,-404,1901
16.571001,66,-413,1949
16.575856,-24,-408,1871
16.580710,-129,-383,1894
16.585710,-240,-350,2012
16.590565,-363,-356,1985
16.595420,-381,-327,2001
16.600420,-222,-250,2042
16.605275,-42,-256,1956
16.610129,101,-231,1983
16.615129,187,-186,1994
16.619984,114,-129,1864
16.624839,82,-81,2131
16.629839,126,-172,2197
16.634694,28,-93,1824
16.639548,7,-97,1846
16.644548,57,-304,1878
16.649065,26,-209,1847
16.654316,32,-45,1987
16.659171,26,-11,2014
16.664171,14,-63,1896
16.669026,14,-72,1810
16.673881,8,114,1930
16.678881,24,149,1997
16.683735,35,108,1964
16.688621,76,196,2056
16.693621,112,173,2106
16.698475,121,124,1792
16.703330,207,103,1931
16.708330,-59,103,2672
16.713185,-434,-1116,2039
16.718039,-74,-2675,1219
16.723039,269,-1177,2260
16.727894,287,508,3204
16.732749,344,-40,2530
16.737749,253,-493,1369
16.742604,274,-488,978
16.747458,478,-6,1276
16.752458,685,591,1758
16.757313,746,701,2014
16.762168,453,551,1889
16.767168,123,242,1571
16.772023,-88,355,1239
16.776877,-404,639,1671
16.781877,-375,557,1908
16.786732,-336,998,996
16.791617,-377,765,1656
16.796617,148,32,2314
16.801472,249,1055,835
16.806327,73,1581,915
16.811327,392,1046,1824
16.816182,417,1515,1162
16.821036,392,1789,723
16.826036,660,1415,1281
16.830891,617,1590,1278
16.835746,112,1935,1224
16.840746,-475,2060,1762
16.845601,-629,2162,1260
16.850455,-590,1814,971
16.855455,-691,1373,1285
16.860310,-525,1323,894
16.865165,-43,1251,721
16.870165,373,1256,785
16.875019,555,1585,651
16.879874,580,1914,612
16.884874,585,2006,635
16.889729,603,1937,591
16.894584,674,1717,562
16.899584,448,1512,544
16.904469,-263,1726,576
16.909324,-638,1985,499
16.914324,-527,1880,282
16.919178,-640,1876,244
16.924033,-734,1885,203
16.929033,-324,1705,78
16.933888,180,1808,-213
16.938743,303,2208,-299
16.943743,328,2299,-45
16.948597,317,2146,-102
16.953452,128,2069,-134
16.958452,-106,1885,-36
16.963307,-474,1897,-242
16.968162,-659,1960,-588
16.973162,-520,1542,-438
16.978016,-534,1489,-427
16.982871,-354,1774,-1125
16.987871,55,1633,-983
16.992726,142,1830,-756
16.997581,196,2203,-1061
17.2581,312,2069,-688
17.7435,269,1880,-695
17.12290,-74,1926,-1034
17.17290,-499,2012,-1131
17.22145,-563,1819,-1404
17.26999,-499,1558,-1329
17.31999,-577,1464,-1245
17.36854,-608,1367,-1479
17.41709,-309,1255,-1668
17.46709,17,1160,-1706
17.51564,53,1178,-1440
17.56418,94,1337,-1265
17.61418,21,1599,-1391
17.66304,-209,1806,-1686
17.71128,-242,1683,-1832
17.76128,-202,1299,-1613
17.81013,-238,971,-1597
17.85868,-281,1023,-1898
17.90868,-292,1115,-2032
17.95723,-204,698,-1627
17.100577,-86,555,-1500
17.105577,17,712,-2027
17.110432,-104,-6,-1243
17.115287,82,-361,-1834
17.120287,715,-18,-4870
17.125142,530,-641,-3964
17.129996,58,-604,-1204
17.134996,-9,608,-1329
17.139851,-49,537,-1709
17.144706,-133,-177,-1904
17.149706,-342,-52,-3375
17.154560,-342,-40,-3955
17.159415,-154,-117,-2677
17.164415,-52,94,-1948
17.169270,64,-183,-1975
17.174125,212,-740,-2000
17.179125,260,-990,-2125
17.183979,151,-958,-2122
17.188834,-6,-804,-2091
17.193834,-156,-704,-2211
17.198689,-247,-811,-2450
17.203544,-254,-1083,-2713
17.208544,-168,-1154,-2579
17.213398,-9,-1020,-2052
17.218253,16,-1179,-1797
17.223253,203,-1332,-1541
17.228108,394,-1313,-1259
17.232963,89,-1688,-1784
17.237963,-229,-1900,-2172
17.242848,-377,-1597,-1868
17.247703,-447,-1368,-1691
17.252703,-252,-1347,-1565
17.257557,7,-1647,-1709
17.262412,208,-1911,-1745
17.267412,389,-1782,-988
17.272267,301,-1711,-492
17.277122,8,-1829,-647
17.282122,-120,-2073,-1145
17.286976,-143,-2198,-1727
17.291831,-202,-1893,-1386
17.296831,-154,-1570,-627
17.301686,-13,-1557,-404
17.306540,-15,-1938,-388
17.311540,-92,-2423,-791
17.316395,-49,-2366,-1008
17.321250,30,-1997,-386
17.326250,-2,-1941,-97
17.331105,-208,-2097,-374
17.335959,-231,-2057,-475
17.340959,101,-1881,-218
17.345814,355,-1765,-27
17.350669,441,-1729,-93
17.355669,398,-1936,174
17.360524,55,-2293,378
17.365378,-288,-2365,112
17.370378,-393,-2157,74
17.375233,-467,-1973,273
17.380088,-459,-1816,226
17.385088,-268,-1750,237
17.389943,-2,-1845,571
17.394828,228,-1886,680
17.399828,382,-1922,615
17.404652,371,-1895,664
17.409537,178,-1799,694
17.414537,-13,-1820,755
17.419392,-145,-1872,794
17.424247,-306,-1770,782
17.429247,-338,-1691,858
17.434102,-150,-1754,917
17.438956,89,-1657,832
17.443956,264,-1675,924
17.448473,255,-1781,983
17.453694,182,-1645,1008
17.458579,139,-1570,1253
17.463579,49,-1484,1273
17.468403,21,-1370,1235
17.473258,14,-1422,1378
17.478258,-6,-1416,1378
17.483143,-42,-1220,1226
17.487998,-102,-1234,1378
17.492998,-70,-1368,1581
17.497853,-59,-1165,1408
17.502707,-131,-1109,1428
17.507707,-133,-1252,1601
17.512562,-27,-1174,1553
17.517079,191,-1081,1473
17.522300,414,-1068,1506
17.527300,448,-997,1524
17.532154,348,-1011,1587
17.537009,198,-1033,1744
17.542009,-6,-847,1694
17.546864,-124,-927,1771
17.551749,-165,-966,1765
17.556749,-200,-720,1558
17.561604,-50,-833,1758
17.566459,199,-834,1780
17.571459,360,-652,1621
17.576313,466,-674,1746
17.581168,391,-583,1785
17.586168,201,-447,1758
17.591023,114,-399,1855
17.595878,73,-349,1949
17.600878,35,-270,1910
17.605732,46,-256,1914
17.610587,67,-293,1946
17.615587,21,-261,1853
17.620442,23,-370,1983
17.625297,98,-404,1931
17.630297,78,-192,1651
17.635151,76,-254,1981
17.640006,114,-258,2040
17.645006,94,-24,1694
17.649861,139,-33,1794
17.654716,298,-59,1905
17.659716,398,37,1892
17.664570,362,174,1808
17.669425,301,198,1867
17.674425,210,105,2039
17.679310,78,255,1856
17.684165,23,342,1794
17.689165,60,242,1953
17.694020,67,414,1778
17.698874,83,514,1792
17.703874,114,460,1981
17.708729,73,633,1808
17.713584,132,664,1839
17.718584,235,617,1826
17.723439,253,678,1660
17.728293,303,612,1740
17.733293,294,626,1701
17.738148,257,678,1767
17.743003,194,696,1846
17.748003,32,785,1742
17.752858,-77,837,1664
17.757712,-54,824,1665
17.762712,19,815,1696
17.767567,16,939,1560
17.772422,99,951,1594
17.777422,276,901,1639
17.782277,308,1044,1490
17.787162,287,1130,1448
17.792162,224,1185,1455
17.797017,73,1267,1487
17.801871,-24,1283,1464
17.806871,23,1289,1430
17.811726,157,1331,1364
17.816581,298,1371,1183
17.821581,448,1280,1185
17.826435,485,1264,1214
17.831290,262,1412,1271
17.836290,-97,1578,1501
17.841145,-377,1808,1331
17.846000,-431,1717,1199
17.851000,-318,1455,1219
17.855854,-306,1510,903
17.860709,-109,1348,1024
17.865709,276,1321,1028
17.870564,410,1728,658
17.875419,532,1753,826
17.880419,617,1796,789
17.885273,567,1887,676
17.890128,462,1739,826
17.895128,83,1776,730
17.900013,-363,1751,917
17.904868,-525,1740,832
17.909868,-550,1812,496
17.914723,-493,1733,542
17.919578,-199,1653,366
17.924578,119,1673,249
17.929432,221,1912,266
17.934287,210,2162,241
17.939287,203,2205,299
17.944142,212,2176,191
17.948997,230,2031,130
17.953997,176,1808,187
17.958851,-2,1760,62
17.963706,-250,1824,-4
17.968706,-470,1905,-11
17.973591,-599,1964,-109
17.978446,-479,1897,-211
17.983446,-150,1799,-408
17.988301,57,1846,-450
17.993155,176,1989,-443
17.998155,182,1983,-415
18.3010,-83,2060,-392
18.7865,-338,2240,-574
18.12865,-370,2056,-563
18.17720,-343,1762,-524
18.22574,-368,1726,-813
18.27574,-168,1605,-1033
18.32429,98,1414,-824
18.37284,12,1667,-868
18.42284,-136,2005,-1102
18.47139,-206,1967,-822
18.51993,-370,1956,-902
18.56993,-375,1880,-1320
18.61848,-231,1481,-1143
18.66703,-220,1373,-1220
18.71703,-204,1498,-1568
18.76558,-161,1421,-1315
18.81443,-159,1478,-1279
18.86443,-158,1603,-1525
18.91298,-242,1556,-1409
18.96152,-336,1576,-1547
18.101152,-338,1464,-1629
18.106007,-336,1219,-1402
18.110862,-345,1389,-1838
18.115862,-236,1558,-2184
18.120716,-42,1182,-1568
18.125571,42,899,-1145
18.130571,-38,1046,-1524
18.135426,-236,1290,-1968
18.140281,-343,1233,-1931
18.145281,-286,839,-1591
18.150135,-300,787,-1515
18.154990,-331,982,-1856
18.159990,-199,869,-2107
18.164845,-63,780,-1929
18.169700,116,389,-1449
18.174700,169,-134,-970
18.179554,35,62,-1775
18.184409,342,-150,-3777
18.189409,457,-875,-3627
18.194294,21,-525,-1843
18.199149,-174,221,-1520
18.204149,-234,230,-1791
18.209004,-325,173,-1995
18.213859,-208,99,-2581
18.218859,41,-17,-3182
18.223713,67,-38,-2998
18.228568,-18,-152,-2207
18.233568,5,-127,-1745
18.238423,3,-336,-1547
18.243278,0,-668,-1677
18.248278,7,-804,-2129
18.252794,-38,-900,-2440
18.258046,-54,-825,-2547
18.262900,-38,-686,-2431
18.267900,-43,-549,-2098
18.272755,-25,-527,-1843
18.277610,1,-838,-1832
18.282610,8,-1195,-1965
18.287465,-20,-1311,-1984
18.292319,-52,-1247,-1859
18.297319,-20,-1218,-1840
18.302174,16,-1265,-1859
18.307029,30,-1286,-1795
18.312029,17,-1331,-1750
18.316883,-38,-1404,-1657
18.321738,-104,-1459,-1482
18.326738,-158,-1511,-1440
18.331593,-168,-1559,-1591
18.336448,-129,-1574,-1615
18.341448,-67,-1618,-1509
18.346302,-8,-1688,-1506
18.351157,39,-1666,-1325
18.356157,82,-1632,-1002
18.361012,85,-1641,-899
18.365867,0,-1722,-950
18.370867,-97,-1890,-1061
18.375752,-136,-1950,-1186
18.380607,-179,-1954,-1154
18.385607,-125,-2011,-1038
18.390461,-6,-1941,-956
18.395316,7,-1779,-643
18.400316,-17,-1788,-349
18.405171,-8,-1850,-549
18.410026,26,-1831,-649
18.415026,-18,-1932,-467
18.419880,-149,-2061,-590
18.424735,-158,-2145,-567
18.429735,-131,-2138,-350
18.434590,-134,-2061,-311
18.439445,-106,-2097,-245
18.444445,-193,-2068,-293
18.449299,-233,-2000,-225
18.454154,-77,-1947,-77
18.459154,89,-1865,-93
18.464009,233,-1872,-17
18.468863,342,-1859,7
18.473863,353,-1829,64
18.478718,155,-2029,316
18.483573,-188,-2293,273
18.488573,-424,-2279,51
18.493458,-550,-2093,58
18.498313,-504,-2009,228
18.503313,-240,-1822,335
18.508168,24,-1713,417
18.513022,242,-2000,623
18.518022,296,-1972,510
18.522539,205,-1870,462
18.527790,137,-1986,662
18.532645,-11,-1848,528
18.537645,-158,-1909,503
18.542500,-238,-1966,585
18.547355,-245,-1931,662
18.552355,-163,-1981,778
18.557209,-83,-1845,682
18.562064,12,-1841,723
18.567064,66,-1824,812
18.571919,51,-1672,828
18.576774,-20,-1709,949
18.581774,-59,-1736,973
18.586628,-63,-1677,982
18.591483,-93,-1706,1053
18.596483,-45,-1659,978
18.601338,39,-1670,978
18.606193,78,-1725,1017
18.611193,74,-1659,964
18.616047,46,-1715,1046
18.620902,19,-1709,1099
18.625902,7,-1616,1124
18.630757,17,-1625,1205
18.635612,1,-1588,1228
18.640612,-15,-1561,1249
18.645466,0,-1559,1248
18.650321,-18,-1561,1274
18.655321,-13,-1543,1330
18.660176,48,-1482,1294
18.665030,110,-1486,1273
18.670030,155,-1484,1294
18.674885,169,-1441,1324
18.679740,153,-1438,1426
18.684740,117,-1384,1456
18.689625,99,-1363,1437
18.694480,74,-1377,1487
18.699480,17,-1325,1503
18.704335,7,-1304,1515
18.709189,23,-1265,1519
18.714189,12,-1238,1487
18.719044,14,-1299,1549
18.723899,7,-1279,1581
18.728899,-29,-1241,1565
18.733754,-17,-1316,1596
18.738608,10,-1300,1594
18.743608,26,-1216,1606
18.748463,58,-1224,1590
18.753318,91,-1204,1580
18.758318,139,-1138,1626
18.763173,192,-1116,1648
18.768027,191,-1106,1681
18.773027,183,-1095,1665
18.777882,169,-1079,1608
18.782737,103,-1058,1699
18.787737,53,-1070,1755
18.792591,28,-1058,1703
18.797477,10,-1033,1744
18.802477,37,-1033,1730
18.807331,82,-1024,1705
18.812186,98,-972,1751
18.817186,119,-909,1746
18.822041,160,-920,1764
18.826896,169,-913,1774
18.831896,135,-874,1785
18.836750,98,-893,1839
18.841605,64,-866,1837
18.846605,64,-829,1842
18.851460,96,-852,1856
18.856315,89,-818,1819
18.861315,114,-800,1810
18.866169,187,-849,1799
18.871024,198,-816,1815
18.876024,164,-775,1867
18.880879,119,-775,1853
18.885734,101,-775,1860
18.890734,112,-770,1878
18.895619,89,-706,1871
18.900474,107,-686,1912
18.905474,146,-708,1894
18.910328,116,-691,1896
18.915183,117,-738,1960
18.920183,132,-700,1821
18.925038,119,-615,1781
18.929893,166,-677,1987
18.934893,191,-627,1930
18.939747,158,-531,1839
18.944602,173,-602,1958
18.949602,187,-590,1926
18.954457,183,-493,1844
18.959311,164,-515,1905
18.964311,116,-542,1949
18.969166,101,-483,1967
18.974051,83,-486,1971
18.979051,76,-513,1935
18.983906,135,-497,1946
18.988761,178,-502,1958
18.993761,189,-492,1922
18.998616,196,-472,1935
19.3470,192,-472,1958
19.8470,171,-461,1935
19.13325,121,-440,1953
19.18180,107,-427,1978
19.23180,146,-413,1981
19.28035,153,-386,2005
19.32889,171,-372,1956
19.37889,221,-363,1908
19.42744,208,-342,1962
19.47261,205,-354,1974
19.52512,223,-363,1956
19.57512,180,-334,1947
19.62367,153,-336,1965
19.67222,164,-327,1999
19.72222,167,-283,1981
19.77076,189,-250,2006
19.81931,199,-231,2010
19.86931,164,-263,1955
19.91786,171,-259,1989
19.96641,208,-190,1990
19.101641,171,-206,1947
19.106526,137,-234,1990
19.111381,135,-215,1997
19.116381,126,-217,1967
19.121235,169,-186,1978
19.126090,196,-159,1983
19.131090,187,-175,1990
19.135945,210,-143,1992
19.140800,199,-115,1989
19.145800,166,-136,2006
19.150654,182,-150,2012
19.155509,178,-145,2006
19.160509,157,-129,2001
19.165364,171,-124,2005
19.170218,171,-120,1999
19.175218,142,-104,1972
19.180073,151,-106,1987
19.184958,191,-106,2001
19.189958,207,-88,1972
19.194813,171,-83,1981
19.199668,158,-59,1997
19.204668,189,-38,2015
19.209523,180,-36,2067
19.214377,155,-17,2058
19.219377,155,-6,2003
19.224232,160,-13,1989
19.229087,176,-4,1994
19.234087,183,1,2001
19.238942,187,14,2006
19.243796,207,46,1976
19.248796,208,49,1956
19.253651,182,32,1976
19.258506,166,30,2010
19.263506,187,49,2037
19.268361,183,73,2015
19.273215,169,71,2006
19.278215,191,69,2001
19.283101,194,82,1972
19.287955,203,91,1974
19.292955,216,130,1965
19.297810,219,157,1956
19.302665,223,158,1981
19.307665,185,187,2015
19.312519,196,196,2015
19.317374,212,196,1999
19.322374,182,226,1985
19.327229,183,242,1944
19.332084,166,226,1926
19.337084,149,230,1962
19.341938,189,280,2012
19.346793,198,312,2024
19.351793,180,296,2014
19.356648,201,274,1999
19.361503,205,258,1960
19.366503,178,235,1960
19.371388,187,242,1958
19.376243,198,282,1949
19.381243,191,278,1981
19.386097,182,253,1981
19.390952,189,280,1960
19.395952,208,294,1976
19.400807,198,264,1974
19.405662,194,276,1947
19.410662,198,317,1971
19.415516,151,346,1964
19.420371,162,369,1931
19.425371,212,378,1951
19.430226,176,398,1926
19.435081,160,419,1935
19.440081,185,405,1972
19.444935,201,416,1933
19.449790,226,442,1919
19.454790,232,442,1935
19.459645,221,480,1940
19.464530,192,489,1933
19.469530,153,458,1946
19.474385,176,507,1972
19.479239,178,526,1956
19.484239,158,498,1939
19.489094,201,517,1924
19.493949,223,519,1914
19.498949,212,514,1915
19.503804,194,549,1896
19.508658,196,537,1894
19.513658,217,532,1915
19.518480,189,583,1901
19.523058,178,601,1887
19.528309,196,592,1917
19.533164,185,619,1903
19.538164,210,642,1867
19.543049,208,633,1881
19.547904,166,637,1867
19.552904,176,640,1864
19.557759,198,646,1897
19.562613,169,683,1887
19.567613,132,667,1871
19.572468,157,658,1856
19.577323,157,699,1844
19.582323,144,707,1864
19.587178,183,707,1881
19.592032,203,735,1878
19.597032,226,755,1860
19.601887,251,757,1826
19.606742,199,776,1805
19.611742,149,799,1815
19.616597,178,819,1815
19.621451,166,832,1806
19.626451,133,821,1833
19.631306,166,840,1799
19.636161,205,864,1771
19.641161,205,848,1805
19.646016,208,832,1780
19.650870,255,865,1776
19.655870,278,928,1774
19.660725,237,940,1746
19.665610,223,919,1764
19.670610,232,935,1726
19.675465,196,955,1710
19.680320,191,942,1748
19.685320,203,969,1714
19.690175,180,1001,1706
19.695029,133,998,1728
19.700029,103,1017,1696
19.704884,135,1048,1683
19.709739,124,1048,1685
19.714739,94,1069,1646
19.719593,141,1087,1646
19.724448,174,1062,1669
19.729448,180,1082,1624
19.734303,187,1128,1633
19.739158,201,1135,1646
19.744158,235,1151,1581
19.749012,241,1171,1587
19.753867,198,1183,1581
19.758867,144,1203,1573
19.763722,99,1192,1601
19.768577,60,1242,1551
19.773577,76,1281,1515
19.778431,137,1194,1485
19.783317,228,1212,1428
19.788317,319,1305,1460
19.793171,278,1312,1449
19.798026,164,1335,1430
19.803026,62,1360,1519
19.807881,-33,1405,1531
19.812736,-52,1428,1419
19.817736,-2,1378,1383
19.822590,71,1378,1387
19.827445,137,1410,1271
19.832445,192,1410,1294
19.837300,210,1449,1378
19.842154,142,1528,1371
19.847154,166,1546,1410
19.852009,307,1517,1267
19.856864,374,1517,1123
19.861864,387,1512,1112
19.866719,367,1501,1064
19.871573,266,1515,1085
19.876573,137,1537,1140
19.881090,46,1517,1285
19.886003,-109,1526,1353
19.891255,-293,1640,1196
19.896110,-306,1649,1148
19.901110,-200,1592,1096
19.905964,-58,1608,933
19.910819,166,1612,839
19.915819,298,1715,760
19.920674,299,1842,840
19.925529,294,1894,973
19.930529,194,1944,919
19.935383,41,1899,890
19.940238,0,1796,890
19.945238,-6,1687,803
19.950093,-27,1583,753
19.954978,-11,1531,755
19.959978,10,1569,696
19.964833,74,1676,683
19.969687,160,1810,669
19.974687,155,1956,585
19.979542,146,2021,544
19.984397,166,2037,457
19.989397,132,2028,399
19.994252,37,1969,439
19.999106,-74,1901,446
20.4106,-197,1853,433
20.8961,-284,1869,357
20.13816,-265,1880,278
20.18816,-158,1840,321
20.23671,-31,1847,230
20.28525,82,1914,103
20.33525,167,1949,139
20.38380,135,2015,85
20.43265,80,2071,44
20.48265,83,2039,94
20.53120,55,1985,57
20.57975,19,1894,-17
20.62975,0,1810,-74
20.67830,-6,1794,-113
20.72684,-20,1823,-140
20.77684,-81,1885,-184
20.82539,-199,1971,-208
20.87394,-292,2031,-208
20.92394,-325,2042,-247
20.97248,-343,2028,-336
20.102103,-315,1965,-383
20.107103,-256,1901,-409
20.111958,-200,1872,-488
20.116813,-102,1821,-590
20.121813,12,1824,-674
20.126667,69,1840,-597
20.131522,41,1889,-538
20.136522,-109,2065,-636
20.141377,-236,2078,-659
20.146232,-263,1946,-650
20.151232,-279,1853,-706
20.156086,-254,1699,-770
20.160941,-213,1574,-838
20.165941,-165,1514,-941
20.170796,-106,1473,-984
20.175651,-122,1601,-986
20.180651,-159,1753,-1041
20.185505,-188,1773,-1038
20.190391,-258,1853,-1088
20.195391,-270,1819,-1140
20.200245,-236,1648,-1125
20.205100,-284,1580,-1243
20.210100,-240,1451,-1318
20.214955,-143,1362,-1361
20.219810,-142,1401,-1365
20.224810,-109,1464,-1352
20.229664,-118,1548,-1441
20.234519,-186,1485,-1359
20.239519,-254,1456,-1368
20.244374,-325,1483,-1547
20.249228,-333,1301,-1550
20.254228,-304,1117,-1531
20.259083,-270,1114,-1686
20.263938,-211,1107,-1870
20.268938,-133,1017,-1766
20.273793,-77,1026,-1656
20.278647,-31,1099,-1722
20.283647,3,1042,-1625
20.288502,-68,1030,-1572
20.293357,-202,1180,-1829
20.298357,-352,1289,-2043
20.303212,-427,1376,-1998
20.308066,-367,1233,-1713
20.313066,-306,760,-1563
20.317921,-267,665,-1945
20.322776,-174,835,-2136
20.327776,-52,541,-1672
20.332661,58,266,-1313
20.337516,110,378,-1425
20.342516,-36,626,-1720
20.347371,-159,530,-1713
20.352225,-125,-72,-1193
20.357225,-265,-125,-1497
20.362080,-125,-586,-3454
20.366935,280,-1557,-4604
20.371935,98,-725,-3088
20.376789,-100,612,-1488
20.381644,69,658,-1354
20.386644,114,244,-1500
20.391499,141,-9,-1827
20.396354,199,-270,-2281
20.401354,141,-525,-2523
20.406208,16,-552,-2447
20.411063,-154,-388,-2068
20.416063,-304,-211,-1843
20.420918,-333,-211,-1956
20.425773,-259,-422,-2190
20.430773,-127,-677,-2466
20.435627,32,-849,-2573
20.440513,149,-893,-2265
20.445513,214,-802,-1731
20.450367,203,-609,-1329
20.455222,85,-600,-1277
20.460222,-68,-884,-1643
20.465077,-186,-1168,-2193
20.469932,-245,-1306,-2527
20.474932,-217,-1224,-2400
20.479786,-109,-1020,-1956
20.484641,12,-979,-1649
20.489641,112,-1102,-1550
20.494496,178,-1272,-1441
20.499351,166,-1415,-1429
20.504351,73,-1441,-1474
20.509205,-54,-1407,-1454
20.514105,-163,-1461,-1588
20.519105,-238,-1549,-1740
20.523591,-265,-1556,-1704
20.528843,-199,-1561,-1631
20.533697,-50,-1556,-1490
20.538697,96,-1522,-1261
20.543552,160,-1590,-1086
20.548407,151,-1636,-986
20.553407,105,-1591,-954
20.558262,-9,-1634,-1009
20.563116,-115,-1731,-1099
20.568116,-124,-1768,-1125
20.572971,-134,-1756,-1149
20.577826,-165,-1777,-1125
20.582826,-127,-1832,-900
20.587681,-61,-1877,-691
20.592535,-15,-1956,-641
20.597535,26,-1991,-524
20.602390,71,-1998,-470
20.607245,87,-2038,-577
20.612245,46,-2048,-508
20.617100,-4,-2036,-477
20.621954,-65,-1988,-533
20.626954,-118,-1890,-317
20.631809,-127,-1866,-290
20.636694,-140,-1984,-447
20.641694,-147,-2048,-393
20.646549,-120,-1968,-299
20.651404,-70,-1938,-145
20.656404,-45,-2020,-17
20.661258,-56,-2093,-65
20.665775,-29,-2095,-61
20.671027,16,-2070,87
20.676027,3,-2006,128
20.680881,-9,-1965,142
20.685736,-8,-2004,217
20.690736,-72,-2034,210
20.695591,-134,-2045,232
20.700446,-95,-2032,287
20.705446,-27,-1981,292
20.710300,33,-1943,342
20.715155,67,-1923,351
20.720155,67,-1895,308
20.725010,96,-1920,387
20.729864,37,-1961,457
20.734864,-102,-2004,496
20.739719,-186,-2034,551
20.744574,-259,-1979,560
20.749574,-259,-1995,578
20.754429,-188,-2032,610
20.759283,-86,-1982,624
20.764283,51,-1882,626
20.769138,99,-1791,687
20.773993,98,-1843,717
20.778993,57,-1843,692
20.783848,-15,-1818,819
20.788702,-15,-1845,908
20.793702,-75,-1804,901
20.798588,-156,-1834,962
20.803442,-142,-1852,939
20.808442,-143,-1797,883
20.813297,-120,-1790,914
20.818152,-54,-1763,919
20.823152,-18,-1716,942
20.828007,-13,-1700,989
20.832861,8,-1691,973
20.837861,44,-1652,1010
20.842716,46,-1616,1115
20.847571,14,-1650,1133
20.852571,3,-1681,1124
20.857425,8,-1636,1189
20.862280,-2,-1627,1185
20.867280,-17,-1670,1124
20.872135,-42,-1663,1153
20.876990,-54,-1638,1185
20.881990,-42,-1634,1187
20.886875,-17,-1629,1223
20.891730,17,-1602,1260
20.896730,30,-1570,1276
20.901584,7,-1543,1278
20.906439,12,-1504,1306
20.911439,30,-1506,1321
20.916294,1,-1534,1308
20.921149,0,-1504,1330
20.926149,10,-1465,1353
20.931003,0,-1463,1371
20.935858,-36,-1484,1383
20.940858,-49,-1490,1383
20.945713,0,-1449,1383
20.950568,-4,-1418,1383
20.955568,-15,-1416,1396
20.960422,30,-1406,1403
20.965277,44,-1390,1419
20.970277,37,-1382,1419
20.975132,53,-1386,1390
20.979987,23,-1379,1389
20.984987,-27,-1356,1394
20.989872,-20,-1366,1390
20.994727,-17,-1359,1381
20.999727,-29,-1329,1439
21.4581,3,-1336,1539
21.9436,35,-1332,1524
21.14436,53,-1332,1458
21.19291,53,-1204,1437
21.24145,30,-999,1444
21.29145,96,-1104,1510
21.34000,92,-1236,1549
21.38855,-29,-1006,1423
21.43855,-8,-770,1406
21.48710,-9,-765,1396
21.53564,-70,-949,1305
21.58564,74,-1202,1551
21.63419,39,-1133,1210
21.68274,-188,-1072,842
21.73274,-79,-1338,1253
21.78129,-108,-1227,1281
21.82983,-256,-754,1369
21.87983,-45,-643,1390
21.92869,253,-643,1406
21.97723,314,373,1637
21.102723,249,1269,1421
21.107578,1328,1824,1924
21.112433,1301,3799,3813
21.117433,199,5326,3433
21.122288,810,4853,-47
21.127142,-102,2376,-577
21.132142,-1429,-424,1137
21.136997,-947,-720,971
21.141852,-745,376,1033
21.146852,-845,1082,1376
21.151706,-411,646,1348
21.156561,-24,-9,2901
21.161561,169,746,2808
21.166416,526,1605,819
21.171271,630,1623,794
21.176271,824,1112,1764
21.181125,807,792,2055
21.185980,632,739,1755
21.190980,508,417,2146
21.195835,217,330,2367
21.200690,-11,562,1935
21.205690,-111,748,2010
21.210575,-97,953,2008
21.215430,-58,1012,1762
21.220430,-22,890,1699
21.225284,62,814,1719
21.230139,189,790,1814
21.235139,274,833,1881
21.239994,358,782,1748
21.244849,373,730,1687
21.249849,289,735,1789
21.254703,232,626,1799
21.259558,116,569,1831
21.264558,1,585,1942
21.269413,19,591,1958
21.274268,30,658,1940
21.279268,51,701,1967
21.284122,176,651,1924
21.288977,260,599,1817
21.293977,267,532,1828
21.298862,271,458,1881
21.303717,283,442,1865
21.308717,269,460,1874
21.313572,210,478,1919
21.318426,135,530,1924
21.323426,74,532,1890
21.328281,19,417,1962
21.333136,1,369,2040
21.338136,32,364,1976
21.342991,51,301,1956
21.347845,99,299,2003
21.352845,207,301,1980
21.357700,278,321,1901
21.362555,292,360,1847
21.367555,264,299,1919
21.372440,173,232,1990
21.377295,92,167,1974
21.382295,42,74,2012
21.387150,19,48,2056
21.392004,44,64,2060
21.397004,92,53,2064
21.401859,135,66,2010
21.406714,126,53,2049
21.411714,112,-25,2096
21.416569,146,-72,2006
21.421423,176,-95,2010
21.426423,183,-102,1978
21.431278,217,-92,1903
21.436133,237,-108,1994
21.441133,203,-143,1985
21.445987,198,-183,1892
21.450842,174,-245,1958
21.455842,121,-288,2003
21.460697,103,-261,1942
21.465552,87,-306,2015
21.470552,48,-354,2119
21.475437,17,-286,2015
21.480292,26,-354,1996
21.485292,42,-508,2078
21.489778,49,-509,2037
21.495029,99,-474,1996
21.499884,157,-486,1944
21.504884,137,-517,1906
21.509769,119,-570,1960
21.514761,103,-631,1940
21.519761,28,-706,1937
21.524125,-13,-774,2017
21.529376,-9,-743,1962
21.534231,21,-709,1833
21.539231,39,-729,1899
21.544086,57,-729,2024
21.548940,116,-749,1874
21.553940,112,-788,1758
21.558826,57,-849,1876
21.563650,41,-959,1910
21.568650,16,-1025,1851
21.573535,-4,-1000,1862
21.578390,57,-988,1889
21.583390,101,-1013,1790
21.588245,78,-1013,1708
21.593099,76,-1018,1756
21.598099,57,-1052,1719
21.602954,14,-1131,1733
21.607809,-18,-1231,1785
21.612809,-61,-1290,1730
21.617664,-59,-1316,1740
21.622518,-13,-1279,1694
21.627518,26,-1220,1640
21.632373,74,-1213,1640
21.637228,92,-1225,1562
21.642228,44,-1270,1528
21.647082,-6,-1370,1551
21.651937,-38,-1470,1546
21.656937,-72,-1525,1549
21.661822,-77,-1557,1551
21.666677,-40,-1534,1498
21.671677,3,-1497,1474
21.676532,24,-1481,1421
21.681387,41,-1438,1348
21.686387,37,-1465,1362
21.691241,7,-1540,1348
21.696096,0,-1584,1328
21.701096,-34,-1636,1321
21.705951,-83,-1720,1353
21.710806,-90,-1722,1376
21.715806,-95,-1675,1285
21.720660,-108,-1722,1246
21.725515,-122,-1749,1246
21.730515,-67,-1736,1190
21.735370,-6,-1731,1126
21.740225,-72,-1693,1014
21.745225,-106,-1674,923
21.750079,-33,-1668,967
21.754934,-40,-1674,974
21.759934,-88,-1711,948
21.764789,-42,-1791,1065
21.769674,-97,-1868,999
21.774674,-206,-1888,599
21.779529,-131,-1940,689
21.784383,-40,-1925,1051
21.789383,-18,-1847,769
21.794238,-18,-1872,615
21.799093,-24,-1840,748
21.804093,-27,-1763,662
21.808948,-115,-1757,489
21.813802,-159,-1759,283
21.818802,-118,-1724,237
21.823657,-13,-1732,207
21.828512,62,-1886,341
21.833512,-117,-1861,185
21.838367,-204,-1904,-258
21.843221,-50,-2443,117
21.848221,17,-2788,228
21.853107,-6,-2772,-120
21.857961,28,-2913,89
21.862961,-8,-2623,-209
21.867816,-120,-2093,-392
21.872671,166,-2870,-38
21.877671,585,-3543,-559
21.882526,330,-2041,-720
21.887380,-68,-770,-100
21.892380,260,-1565,-458
21.897235,548,-1784,-1256
21.902090,169,-870,-824
21.907090,135,-1070,-370
21.911945,366,-1540,-1070
21.916799,149,-1359,-1236
21.921799,60,-1507,-815
21.926654,203,-1931,-906
21.931509,117,-2090,-1031
21.936509,-33,-2161,-1022
21.941363,-25,-2311,-1079
21.946218,12,-2252,-1025
21.951218,24,-2075,-979
21.956103,33,-1965,-1015
21.960958,89,-1818,-1006
21.965958,164,-1650,-949
21.970813,199,-1543,-863
21.975668,199,-1515,-766
21.980668,210,-1515,-763
21.985522,214,-1565,-849
21.990377,137,-1649,-866
21.995377,73,-1757,-800
22.232,53,-1947,-759
22.5087,24,-2068,-825
22.10087,0,-2104,-888
22.14941,-8,-2141,-841
22.19796,39,-2079,-831
22.24796,71,-1943,-888
22.29651,78,-1806,-883
22.34506,108,-1681,-872
22.39506,123,-1602,-961
22.44360,139,-1554,-1050
22.49215,153,-1522,-1056
22.54215,142,-1532,-1086
22.59100,121,-1566,-1127
22.63955,116,-1582,-1118
22.68955,117,-1627,-1141
22.73810,83,-1684,-1166
22.78664,62,-1668,-1177
22.83664,57,-1627,-1199
22.88519,55,-1593,-1216
22.93374,67,-1572,-1224
22.98374,73,-1540,-1232
22.103229,99,-1491,-1231
22.108083,107,-1447,-1215
22.113083,74,-1366,-1302
22.117938,112,-1354,-1302
22.122793,135,-1384,-1184
22.127793,98,-1365,-1250
22.132648,92,-1311,-1409
22.137502,64,-1243,-1411
22.142502,53,-1325,-1306
22.147357,41,-1222,-1500
22.152212,-4,-1045,-1529
22.157212,7,-1083,-1338
22.162097,-9,-950,-1525
22.166952,-17,-872,-1452
22.171952,-31,-736,-1647
22.176807,53,-597,-1365
22.181661,3,-477,-1440
22.186661,-108,-309,-2279
22.191516,323,-592,483
22.196371,-604,980,-5116
22.201371,-1181,2455,-11512
22.206226,405,1560,-465
22.211080,564,2228,3240
22.216080,276,1335,-2173
22.220935,558,-1595,-1011
22.225790,57,-995,-1491
22.230790,-274,14,-2970
22.235644,-181,-966,-2166
22.240499,-217,-784,-2248
22.245499,-342,-193,-2782
22.250354,-177,-445,-1865
22.255209,-229,80,-1990
22.260209,-588,767,-3541
22.265063,51,337,-1932
22.269918,742,524,103
22.274918,216,1315,-1438
22.279435,-54,739,-2331
22.284686,248,-218,-1529
22.289541,185,-363,-1884
22.294541,-124,-67,-2666
22.299396,-247,26,-2357
22.304250,-184,14,-1850
22.309250,-170,183,-2036
22.314105,-125,201,-2006
22.318960,-56,246,-1806
22.323960,-36,330,-1916
22.328815,57,274,-1861
22.333669,146,258,-1802
22.338669,132,230,-1832
22.343524,85,180,-1888
22.348409,49,198,-1988
22.353409,-22,232,-1972
22.358264,-93,221,-1959
22.363119,-92,199,-1959
22.368119,-79,191,-1948
22.372974,-63,160,-2004
22.377828,-13,141,-2009
22.382828,12,167,-1979
22.387683,32,191,-1945
22.392538,74,228,-1840
22.397538,74,278,-1816
22.402393,33,278,-1898
22.407247,-27,248,-1900
22.412247,-49,230,-1911
22.417102,-17,210,-1988
22.421957,-45,160,-2006
22.426957,-65,137,-2011
22.431811,-24,155,-2016
22.436666,5,196,-1952
22.441666,12,214,-1907
22.446521,26,221,-1893
22.451406,30,246,-1865
22.456406,-2,239,-1886
22.461261,-15,224,-1943
22.466116,-2,194,-1950
22.471116,-20,162,-1986
22.475970,-42,167,-2023
22.480825,-25,183,-1970
22.485825,-15,194,-1950
22.490680,-11,194,-1940
22.495535,35,210,-1909
22.500535,44,241,-1898
22.505389,7,246,-1872
22.510244,-2,205,-1909
22.515244,-13,171,-1965
22.519791,-34,171,-1982
22.524674,-25,183,-1979
22.529925,-13,194,-1982
22.534780,-20,182,-1995
22.539780,-27,174,-1941
22.544635,-20,171,-1923
22.549490,14,155,-1959
22.554490,17,160,-1947
22.559344,-4,162,-1934
22.564199,5,149,-1948
22.569199,10,157,-1973
22.574054,0,162,-1970
22.578939,-17,158,-1952
22.583939,-22,166,-1963
22.588794,-8,178,-1957
22.593649,14,176,-1943
22.598649,30,166,-1948
22.603503,28,151,-1950
22.608358,7,162,-1950
22.613358,-9,169,-1970
22.618213,3,121,-1968
22.623068,-8,123,-1961
22.628068,-13,164,-1956
22.632922,-4,155,-1929
22.637777,-6,162,-1952
22.642777,-15,173,-1972
22.647632,-29,142,-1948
22.652487,-6,139,-1954
22.657487,21,160,-1948
22.662372,10,160,-1931
22.667227,-2,144,-1922
22.672227,8,135,-1923
22.677081,24,142,-1941
22.681936,-6,137,-1934
22.686936,-22,110,-1925
22.691791,3,105,-1940
22.696645,7,123,-1925
22.701645,8,119,-1923
22.706500,7,108,-1956
22.711355,-29,128,-1932
22.716355,-20,157,-1911
22.721210,16,142,-1956
22.726095,-17,105,-1961
22.731095,-25,116,-1932
22.735919,3,151,-1931
22.740804,12,132,-1927
22.745804,10,119,-1931
22.750659,-6,128,-1961
22.755514,12,130,-1961
22.760514,8,116,-1956
22.765369,-25,92,-1995
22.770223,1,121,-1965
22.775223,12,137,-1918
22.780078,-13,110,-1952
22.784933,0,110,-1945
22.789933,5,112,-1932
22.794788,5,108,-1972
22.799642,8,107,-1959
22.804642,10,99,-1920
22.809528,39,116,-1922
22.814382,21,105,-1959
22.819382,-8,87,-1966
22.824237,5,114,-1922
22.829092,3,103,-1945
22.834092,-6,87,-1972
22.838946,-9,132,-1950
22.843801,0,132,-1977
22.848801,10,83,-1961
22.853656,16,80,-1897
22.858511,21,116,-1932
22.863511,7,117,-1963
22.868365,-9,87,-1940
22.873220,0,94,-1941
22.878220,12,110,-1948
22.883105,23,103,-1957
22.887960,19,96,-1961
22.892960,12,87,-1959
22.897815,16,78,-1965
22.902670,8,85,-1956
22.907670,8,96,-1957
22.912524,16,116,-1961
22.917379,12,110,-1920
22.922379,10,87,-1940
22.927234,1,96,-1986
22.932119,8,112,-1954
22.937119,21,116,-1945
22.941974,7,112,-1959
22.946829,0,98,-1977
22.951829,12,89,-1975
22.956683,7,94,-1959
22.961538,0,103,-1972
22.966538,16,94,-1950
22.971393,17,99,-1950
22.976248,12,105,-1947
22.981248,21,69,-1927
22.986102,-13,124,-1991
22.990957,-17,176,-1945
22.995957,30,128,-1898
23.842,17,141,-1954
23.5697,39,149,-1900
23.10697,49,141,-1879
23.15552,10,180,-1940
23.20406,41,149,-1895
23.25406,-104,185,-1902
23.30261,-286,258,-2015
23.35116,-190,92,-2041
23.40116,-197,16,-2211
23.44971,-258,73,-2429
23.49825,-143,-13,-2334
23.54825,-75,30,-2157
23.59680,-159,80,-2027
23.64565,-345,151,-2316
23.69565,-284,226,-2854
23.74420,107,-59,-2470
23.79275,303,-120,-1786
23.84275,296,69,-1582
23.89130,503,-52,-1282
23.93984,351,-152,-1397
23.98984,-150,-49,-2163
23.103839,242,-52,-2373
23.108694,687,208,-1647
23.113694,307,737,-915
23.118210,35,701,-1854
23.123462,160,153,-2747
23.128317,316,-95,-2009
23.133317,173,96,-2127
23.138171,192,121,-2647
23.143026,492,55,-3086
23.148026,698,-115,-4134
23.152881,1053,-311,-4616
23.157766,1401,3,-4202
23.162766,1501,383,-3779
23.167621,1423,349,-3800
23.172476,1180,146,-3884
23.177476,899,-63,-3864
23.182330,651,-242,-3727
23.187185,460,-324,-3470
23.192185,349,-349,-3266
23.197040,335,-320,-3150
23.201894,362,-245,-3036
23.206894,382,-186,-2993
23.211780,423,-124,-3047
23.216634,476,-67,-3111
23.221634,541,23,-3211
23.226489,630,144,-3189
23.231344,726,176,-3032
23.236344,814,207,-2945
23.241199,917,303,-2898
23.246053,965,294,-2956
23.251053,1019,267,-2973
23.255908,1169,335,-2870
23.260763,1262,357,-2889
23.265763,1346,430,-2959
23.270618,1453,560,-2968
23.275503,1506,589,-2913
23.280503,1581,655,-2854
23.285358,1656,735,-2863
23.290212,1717,757,-2870
23.295212,1781,812,-2847
23.300067,1815,805,-2829
23.304922,1869,733,-2834
23.309922,1917,701,-2782
23.314777,1922,678,-2663
23.319631,1906,649,-2554
23.324631,1889,599,-2457
23.329486,1872,521,-2370
23.334371,1830,451,-2263
23.339371,1771,378,-2213
23.344226,1705,274,-2197
23.349081,1674,183,-2088
23.354081,1676,139,-1943
23.358935,1681,87,-1802
23.363790,1721,30,-1693
23.368790,1783,28,-1568
23.373645,1839,21,-1438
23.378500,1872,-15,-1440
23.383500,1928,-20,-1452
23.388385,2030,-2,-1366
23.393240,2114,26,-1295
23.398240,2149,33,-1254
23.403094,2149,33,-1200
23.407949,2151,66,-1158
23.412949,2135,103,-1145
23.417804,2096,146,-1161
23.422659,2060,189,-1195
23.427659,1996,251,-1215
23.432513,1912,337,-1200
23.437368,1814,426,-1163
23.442368,1731,489,-1115
23.447253,1674,524,-1054
23.452108,1583,558,-950
23.457108,1567,546,-841
23.461963,1476,703,-697
23.466818,1105,678,-665
23.471818,967,-120,-841
23.476672,1010,-347,-827
23.481527,839,296,-583
23.486527,858,241,-443
23.491382,1057,-102,-347
23.496237,1067,48,-195
23.501237,1024,260,-111
23.506091,1083,283,-74
23.510946,1178,333,-92
23.515946,1267,485,-172
23.520463,1306,580,-277
23.525714,1333,694,-475
23.530569,1367,798,-625
23.535569,1387,853,-595
23.540424,1423,1024,-556
23.545309,1442,1199,-622
23.550309,1448,1287,-708
23.555164,1519,1419,-720
23.560018,1621,1576,-697
23.565018,1678,1678,-684
23.569873,1683,1665,-652
23.574728,1667,1590,-708
23.579728,1685,1505,-891
23.584582,1712,1360,-1084
23.589437,1692,1235,-1161
23.594437,1637,1244,-983
23.599322,1551,1298,-709
23.604177,1483,1258,-533
23.609177,1456,1130,-492
23.614032,1433,982,-572
23.618887,1405,819,-663
23.623887,1364,619,-704
23.628741,1303,542,-604
23.633596,1196,574,-474
23.638596,1090,523,-509
23.643451,1039,489,-534
23.648306,969,503,-472
23.653306,910,542,-368
23.658160,907,633,-224
23.663046,896,698,-147
23.668046,887,758,-108
23.672900,892,815,-63
23.677755,871,878,-50
23.682755,867,999,-27
23.687610,937,1105,-40
23.692465,930,1158,-167
23.697465,885,1194,-302
23.702319,944,1223,-442
23.707174,946,1214,-570
23.712174,994,1249,-706
23.717029,1289,1433,-977
23.721883,1481,1523,-1013
23.726883,1435,1480,-684
23.731738,1455,1571,-508
23.736593,1560,1558,-534
23.741593,1635,1355,-625
23.746448,1671,1242,-854
23.751333,1773,1135,-1102
23.756333,1919,978,-1152
23.761188,1940,955,-984
23.766042,1940,1028,-874
23.771042,1989,1028,-941
23.775897,1972,944,-1041
23.780752,1883,839,-1095
23.785752,1760,799,-993
23.790607,1644,824,-674
23.795461,1503,853,-390
23.800461,1376,890,-250
23.805316,1330,873,-190
23.810171,1262,789,-186
23.815171,1173,787,-225
23.820056,1157,889,-274
23.824911,1164,978,-236
23.829911,1160,1101,-193
23.834766,1182,1239,-240
23.839620,1167,1274,-299
23.844620,1128,1330,-325
23.849475,1126,1464,-333
23.854330,1115,1503,-331
23.859330,1069,1494,-288
23.864185,1003,1519,-211
23.869039,960,1533,-199
23.874039,946,1537,-224
23.878894,946,1503,-231
23.883749,989,1478,-245
23.888749,1026,1415,-215
23.893603,1023,1276,-163
23.898458,1039,1183,-154
23.903458,1062,1121,-163
23.907975,1074,1078,-192
23.913226,1046,1083,-199
23.918081,985,1082,-136
23.923081,935,1074,-113
23.927936,890,1096,-81
23.932790,915,1058,35
23.937790,942,921,-143
23.942645,932,878,-233
23.947500,944,951,99
23.952500,876,905,196
23.957355,798,839,274
23.962209,758,971,446
23.967209,635,1048,360
23.972064,446,926,287
23.976949,255,826,348
23.981949,148,805,98
23.986804,223,621,-574
23.991659,474,221,-722
23.996659,623,319,-124
24.1514,553,1142,314
24.6368,592,1460,639
24.11368,710,1264,805
24.16223,682,1373,478
24.21078,628,1474,278
24.26078,599,1549,442
24.30933,516,1796,587
24.35787,494,2006,644
24.40787,537,1919,819
24.45642,335,1830,301
24.50497,232,1615,-70
24.55497,398,1196,578
24.60352,321,1323,266
24.65206,342,1546,-67
24.70206,592,1473,373
24.75061,712,1546,7
24.79946,764,1623,-295
24.84946,790,1553,-67
24.89801,833,1524,-84
24.94656,978,1528,-115
24.99656,1158,1515,62
24.104510,1151,1674,219
24.109365,1039,1608,230
24.114365,1051,1182,182
24.119220,1058,1119,198
24.124075,948,1294,203
24.129075,871,1148,126
24.133929,865,1035,141
24.138784,849,1146,292
24.143784,876,1164,407
24.148639,933,1121,446
24.153494,917,1103,430
24.158494,883,1073,355
24.163379,848,1078,307
24.168203,832,1128,339
24.173203,842,1158,335
24.178088,890,1096,367
24.182943,1005,1099,503
24.187943,1037,1219,451
24.192798,1062,1169,348
24.197653,1169,1112,364
24.202653,1280,1192,323
24.207507,1403,1214,303
24.212362,1465,1151,305
24.217362,1456,1048,266
24.222217,1456,924,223
24.227071,1431,860,217
24.232071,1385,914,317
24.236926,1312,964,392
24.241781,1217,930,403
24.246781,1187,933,469
24.251636,1157,971,478
24.256521,1117,989,487
24.261521,1133,992,514
24.266376,1139,978,432
24.271230,1137,985,376
24.276230,1185,1030,348
24.281085,1219,1112,307
24.285940,1258,1228,291
24.290940,1326,1328,246
24.295795,1348,1374,214
24.300649,1351,1408,144
24.305649,1356,1467,78
24.310504,1380,1458,108
24.315359,1306,1428,92
24.320359,1058,1615,85
