;Title, http://www.gcdataconcepts.com, x16-1d, ADXL345
;Version, 1877, Build date, Jan  8 2020,  SN:CCDC4016ECDDBE3
;Start_time, 2022-11-10, 20:02:48.424
;Uptime, 4,sec,  Vbat, 1448, mv, EOL, 1100, mv
;SampleRate, 100,Hz
;Deadband, 100, counts
;DeadbandTimeout, 15.000,sec
;Time, Ax, Ay, Az
0.160799,-4,-106,-1997
0.170476,-8,-172,-2095
0.180183,-6,-172,-2122
0.189860,-11,-117,-2132
0.199860,-6,-81,-2148
0.209567,1,-84,-2125
0.219243,-6,-75,-2084
0.228950,5,-40,-2075
0.238657,-11,-45,-1957
0.248657,1,-52,-1954
0.258334,35,-4,-2066
0.268041,-58,-108,-1634
0.277717,148,49,-2425
0.287424,464,355,-3450
0.297424,251,14,-2313
0.307101,-31,-170,-1981
0.316808,-9,10,-2475
0.326484,51,-75,-2234
0.336191,41,-147,-2120
0.346191,16,-70,-2082
0.355868,5,-22,-1977
0.365575,16,-42,-1888
0.375251,30,-54,-1918
0.384958,26,-70,-1982
0.394958,16,-88,-1988
0.404635,21,-83,-2009
0.414342,17,-88,-2056
0.424018,-13,-75,-2141
0.433725,0,-92,-2115
0.443725,26,-52,-2090
0.453402,-75,-25,-2202
0.463109,103,-167,-1704
0.472786,387,-52,-1847
0.482493,224,-33,-3129
0.492493,76,-256,-2938
0.502169,39,-129,-2090
0.511876,-24,-33,-2075
0.521583,-36,-70,-2116
0.531260,-24,-31,-2238
0.541260,5,-70,-2357
0.550967,-8,-70,-2302
0.560643,-18,21,-2229
0.570350,-4,0,-2027
0.580027,0,-45,-1829
0.590027,1,-33,-1824
0.599734,-11,-45,-1847
0.609410,-24,-63,-1870
0.619117,-8,-92,-1920
0.628794,-11,-118,-1952
0.638794,-25,-115,-1995
0.648501,-15,-95,-2070
0.658177,0,-79,-2123
0.667884,-8,-56,-2111
0.706944,-17,64,-2036
0.716651,-20,78,-1998
0.726328,-24,82,-1982
0.736328,-33,57,-1975
0.746035,-42,60,-1993
0.755712,-38,46,-2052
0.765419,-43,7,-2131
0.775095,-58,-13,-2175
0.785095,-65,-17,-2154
0.794802,-84,26,-2129
0.843569,-27,30,-1981
0.853246,-33,16,-1948
0.862953,-38,35,-1950
0.872660,-42,83,-1993
0.882660,-25,89,-2045
0.892336,-6,46,-2075
0.902043,-2,28,-2081
0.911720,-2,35,-2065
0.921427,-2,26,-2040
0.931427,-2,35,-2011
1.18961,58,142,-2141
1.28961,53,176,-2152
1.38638,42,166,-2132
1.48345,74,114,-2077
1.58021,107,66,-2006
1.67728,78,37,-1972
1.77728,46,78,-2011
1.87405,28,139,-2086
1.97112,7,101,-2141
1.106788,7,39,-2143
1.136172,14,-20,-2000
1.145879,8,-15,-1981
1.155555,48,8,-1973
1.165262,103,44,-1961
1.175262,142,73,-1961
1.184939,201,133,-1927
1.194646,226,203,-1897
1.204353,221,173,-1913
1.214029,219,82,-1950
1.224029,182,12,-2000
1.233736,133,-93,-2040
1.243413,96,-186,-2052
1.253089,58,-188,-2079
1.262797,48,-150,-2086
1.272797,58,-115,-2038
1.282473,57,-99,-1997
1.292180,41,-75,-1966
1.301857,28,-50,-1918
1.311564,33,-38,-1898
1.321564,33,-33,-1940
1.340947,-2,-59,-2088
1.350624,3,-90,-2123
1.360331,10,-72,-2140
1.370331,8,-25,-2143
1.380007,21,-9,-2122
1.389714,37,-22,-2063
1.399391,33,-63,-1984
1.409098,24,-95,-1936
1.419098,30,-113,-1922
1.428774,28,-129,-1920
1.457834,17,-18,-2011
1.467834,-6,0,-2052
1.477541,-4,17,-2079
1.487218,-11,23,-2102
1.496925,-24,-2,-2107
1.506601,-43,-2,-2084
1.516601,-59,35,-2070
1.526308,-59,71,-2056
1.535985,-67,99,-2041
1.545692,-70,108,-2050
1.584752,46,107,-1963
1.594459,78,169,-1998
1.604136,69,267,-2068
1.614136,92,246,-2043
1.623812,137,153,-1988
1.633519,112,139,-2016
1.643196,33,198,-2095
1.652903,-11,235,-2147
1.662903,-34,228,-2148
1.672579,-93,180,-2134
1.701670,-170,119,-2016
1.711670,-215,32,-2022
1.721346,-184,-9,-2084
1.731023,-163,21,-2136
1.740730,-142,49,-2150
1.750406,-97,39,-2147
1.760406,-90,67,-2093
1.770113,-54,146,-2013
1.779790,-2,233,-1991
1.789497,10,303,-1997
1.809173,44,276,-1836
1.818881,67,278,-1834
1.828557,69,251,-1890
1.838264,28,173,-1911
1.847941,-13,103,-1972
1.857941,-15,87,-2048
1.867617,-11,151,-2115
1.877324,-33,180,-2136
1.887001,-58,182,-2073
1.896708,-68,237,-2097
1.916384,-34,132,-2127
1.926091,-31,112,-2084
1.935768,-42,171,-2036
1.945475,-50,223,-1970
1.955475,-50,214,-1950
1.965151,-43,208,-1982
1.974858,-34,239,-2081
1.984535,-50,230,-2154
1.994242,-100,199,-2088
2.4242,-115,158,-1988
2.13918,-75,73,-1972
2.23257,-49,28,-1998
2.33360,-24,64,-1998
2.43037,1,110,-2013
2.52744,5,155,-2045
2.62744,0,249,-2011
2.72421,-2,362,-1975
2.82128,8,385,-1965
2.91804,24,337,-1941
2.101481,35,305,-1961
2.111481,37,317,-1995
2.121188,42,344,-2027
2.130864,24,342,-2066
2.140571,14,333,-2045
2.150248,26,342,-2015
2.160248,24,341,-2022
2.199015,24,228,-1990
2.209015,14,241,-1963
2.218722,-9,266,-1973
2.228398,-13,282,-2007
2.238075,-8,248,-2029
2.247782,-13,169,-2016
2.257782,-15,155,-1988
2.267458,0,208,-1993
2.277165,3,232,-2016
2.286842,7,228,-2023
2.472203,-190,-17,-1990
2.481910,-184,1,-1893
2.491587,69,321,-2007
2.501587,-42,285,-2032
2.511294,-106,262,-2011
2.520970,-18,301,-2066
2.530677,-2,246,-2052
2.540354,-8,235,-2018
2.550354,-9,273,-1993
2.560061,8,296,-1965
2.569737,10,255,-1952
2.579444,-2,208,-1927
2.589121,1,182,-1934
2.608797,-36,183,-2050
2.618505,-52,235,-2147
2.628181,-77,285,-2218
2.637888,-79,321,-2216
2.647888,-81,321,-2181
2.657565,-109,308,-2157
2.667272,-102,348,-2131
2.676948,-74,457,-2077
2.686655,-36,571,-2070
2.696655,10,662,-2138
2.706332,7,724,-2204
2.716039,-40,678,-2222
2.725715,-74,408,-2120
2.735422,-117,67,-1947
2.745422,-143,-84,-1836
2.755099,-158,-24,-1777
2.764775,-172,116,-1807
2.774482,-154,208,-1998
2.784159,-149,274,-2265
2.794159,-170,298,-2411
2.803866,-145,223,-2359
2.813542,-63,216,-2204
2.823249,-13,330,-2022
2.832926,-45,362,-1840
2.842926,-63,216,-1741
2.852633,-34,21,-1752
2.862309,-36,-56,-1870
2.872016,-42,-34,-2095
2.881693,-24,17,-2265
2.891693,-8,141,-2257
2.901400,19,298,-2168
2.911077,48,380,-2098
2.920753,67,389,-2040
2.930460,66,376,-1956
2.940460,49,358,-1888
2.950137,41,323,-1922
2.959844,10,235,-2066
2.969520,-18,198,-2172
2.979227,-45,228,-2177
2.989227,-61,182,-2143
2.998904,-36,121,-2057
3.8580,-4,174,-1923
3.18287,10,251,-1806
3.27964,5,291,-1749
3.37964,14,283,-1750
3.47671,-6,153,-1879
3.57347,-95,-13,-2118
3.67024,-136,-61,-2245
3.76731,-115,-158,-2184
3.86731,-152,-25,-2195
3.96407,-99,1,-2122
3.106114,16,-856,-1632
3.115791,-222,-931,-1432
3.125467,-386,-183,-1729
3.135467,-400,1,-2177
3.145174,-395,51,-2338
3.154851,-117,-31,-1959
3.164558,-142,-4,-1938
3.174235,-243,7,-2047
3.184235,-92,-242,-1884
3.193942,-84,-84,-2011
3.203618,-59,30,-2229
3.213295,-27,-347,-2195
3.223002,-167,-227,-2004
3.233002,-158,301,-1959
3.242678,35,358,-1718
3.252385,71,312,-1572
3.262062,44,262,-2402
3.271738,12,8,-2825
3.281738,-54,-188,-2273
3.291445,-84,-272,-2097
3.301122,-149,-188,-2213
3.310829,-122,-56,-2115
3.320505,-42,-20,-1881
3.330505,-54,16,-1679
3.340182,28,-43,-1861
3.349889,221,-74,-2104
3.359565,307,121,-2059
3.369272,164,101,-2240
3.379272,-113,-67,-2500
3.388949,-181,-25,-2293
3.398656,74,92,-2041
3.408332,330,80,-2088
3.418009,292,-63,-2016
3.428009,21,-49,-1774
3.437716,-150,-97,-1629
3.447392,60,-272,-1661
3.457099,421,-193,-1945
3.466776,241,251,-2154
3.476776,-322,923,-2061
3.486483,-425,1130,-1990
3.496160,-245,674,-2056
3.505836,-186,257,-2107
3.515543,-106,173,-2045
3.525543,-84,228,-1927
3.535220,-156,282,-1811
3.544927,-174,287,-1761
3.554603,-95,280,-1807
3.564280,-92,317,-1904
3.574280,-158,380,-1986
3.583987,-117,410,-1995
3.593663,12,405,-1927
3.603370,7,430,-1840
3.613047,-224,473,-1807
3.623047,-286,449,-1840
3.632754,-131,348,-1854
3.642430,-29,283,-1832
3.652107,-58,333,-1872
3.661814,-142,432,-1950
3.671814,-131,516,-2006
3.681490,-59,517,-2059
3.691197,-4,476,-2113
3.700874,-29,478,-2113
3.710550,48,485,-2068
3.720550,121,496,-2057
3.730257,-125,535,-2082
3.739934,-118,530,-2157
3.749641,155,471,-2248
3.759318,164,467,-2266
3.769318,153,541,-2311
3.778994,223,564,-2402
3.788701,244,523,-2425
3.798378,269,514,-2381
3.808085,323,521,-2334
3.818085,362,517,-2298
3.827761,391,485,-2238
3.837468,448,433,-2161
3.866852,449,383,-2041
3.876528,403,433,-2061
3.886205,344,432,-2057
3.895912,333,417,-2015
3.905588,330,437,-2000
3.915588,314,446,-1966
3.925265,305,437,-1886
3.934972,317,428,-1841
3.944648,351,414,-1822
3.954325,364,389,-1802
4.13092,371,274,-1715
4.22799,324,264,-1691
4.32475,296,337,-1724
4.42152,266,396,-1804
4.51859,224,389,-1872
4.61859,166,398,-1890
4.71536,96,414,-1882
4.81243,66,369,-1882
4.90919,78,287,-1911
4.100626,121,221,-1950
4.130010,137,258,-2088
4.139686,137,276,-2156
4.149393,137,314,-2179
4.159393,171,326,-2161
4.169070,174,348,-2147
4.178746,164,376,-2134
4.188453,155,374,-2093
4.198130,149,380,-2029
4.208130,176,403,-1973
4.217837,207,412,-1932
4.266604,326,444,-1922
4.276280,333,421,-1916
4.285987,312,419,-1891
4.295664,253,441,-1834
4.305664,196,469,-1790
4.315371,171,449,-1781
4.325047,162,382,-1800
4.334724,157,326,-1824
4.344431,148,307,-1829
4.354431,155,333,-1872
4.373815,178,382,-2015
4.383491,199,357,-2015
4.393198,216,362,-2018
4.403198,242,387,-2063
4.412875,305,333,-2115
4.422582,367,260,-2115
4.432258,380,271,-2077
4.441935,341,308,-2047
4.451935,312,326,-2023
4.461642,321,314,-2002
4.510409,424,294,-1932
4.520085,426,257,-1943
4.529792,444,205,-1957
4.539469,466,203,-1943
4.549469,453,232,-1940
4.559176,424,232,-1954
4.568852,405,216,-1963
4.578191,389,233,-1957
4.588295,367,271,-1954
4.597971,346,276,-1957
4.646738,307,396,-1954
4.656738,289,446,-1948
4.666445,312,437,-1948
4.676122,339,394,-1982
4.685829,342,394,-1982
4.695505,324,428,-1950
4.705505,292,462,-1956
4.715212,282,485,-1990
4.724889,278,471,-2025
4.734596,269,423,-2036
4.919957,376,396,-1988
4.929634,374,389,-2006
4.939341,376,360,-2006
4.949341,392,369,-1993
4.959048,391,385,-1988
4.968724,357,382,-1986
4.978431,357,387,-1973
4.988108,382,374,-1972
4.998108,394,355,-1993
5.7784,389,362,-1979
5.183176,282,383,-1959
5.193176,291,376,-1966
5.202853,280,392,-1957
5.212560,274,407,-1965
5.222236,285,396,-1965
5.231943,285,376,-1956
5.241943,299,371,-1957
5.251620,307,383,-1966
5.261327,303,391,-1977
5.271003,310,391,-1982
5.690552,380,424,-2084
5.700259,371,407,-2090
5.709935,387,373,-2077
5.719642,405,349,-2025
5.729319,412,342,-1997
5.739319,410,344,-2002
5.749026,382,346,-1990
5.758702,364,335,-1972
5.768409,380,312,-1963
5.778086,383,291,-1948
5.817176,276,319,-1954
5.826853,232,316,-1954
5.836853,198,328,-1950
5.846560,185,330,-1981
5.856236,167,319,-1977
5.865943,149,333,-1970
5.875620,119,312,-1968
5.885620,96,285,-1945
5.895327,94,305,-1932
5.905004,91,314,-1925
6.21921,208,305,-2041
6.31921,232,316,-1998
6.41598,241,321,-1973
6.51305,244,317,-2004
6.60981,228,314,-2022
6.70688,226,312,-2011
6.80688,244,323,-2006
6.90365,249,333,-2031
6.100072,248,319,-2048
6.109748,262,312,-2047
7.153269,221,280,-1943
7.163269,214,291,-1957
7.172976,210,326,-1972
7.182652,198,321,-1982
7.192360,183,323,-1997
7.202036,191,337,-2016
7.212036,189,310,-2032
7.221743,176,296,-2029
7.231420,183,308,-2040
7.241127,183,316,-2072
7.348337,162,294,-1970
7.358337,182,312,-1993
7.368014,180,317,-2011
7.377721,176,296,-1997
7.387397,192,291,-1995
7.397104,199,291,-1984
7.407104,199,273,-1966
7.416781,201,273,-1981
7.426488,199,278,-1997
7.436164,189,291,-2002
7.728736,82,282,-1923
7.738443,107,301,-1931
7.748443,114,317,-1941
7.758120,99,326,-1950
7.767827,114,321,-1956
7.777504,139,326,-1986
7.787211,162,321,-2029
7.797211,189,296,-2041
7.806887,192,291,-2031
7.816564,196,289,-2043
17.578216,94,219,-2022
17.587862,107,237,-2022
17.597569,107,260,-2020
17.607246,99,267,-2034
17.616922,103,267,-2052
17.626922,123,271,-2043
17.636630,142,258,-2023
17.646306,151,241,-2027
17.656013,158,226,-2027
17.665690,160,205,-2006
18.94734,42,137,-1943
18.104441,39,162,-1936
18.114441,35,199,-1966
18.124117,33,216,-1998
18.133794,39,198,-2006
18.143501,62,183,-2006
18.153177,67,171,-2002
18.163177,55,162,-1998
18.172854,74,173,-2025
18.182561,85,162,-2048
18.387214,153,173,-2182
18.396891,166,142,-2207
18.406891,194,98,-2193
18.416598,216,62,-2191
18.426274,223,48,-2207
18.435951,230,26,-2241
18.445658,208,-2,-2266
18.455658,176,-20,-2261
18.465334,164,-59,-2254
18.475011,162,-95,-2282
18.504394,76,-120,-2470
18.514071,30,-143,-2581
18.523778,10,-158,-2645
18.533454,14,-206,-2693
18.543131,21,-277,-2734
18.553131,12,-288,-2800
18.562838,8,-267,-2872
18.572515,-31,-240,-2847
18.582191,-111,-188,-2759
18.591898,-79,-156,-2698
18.601898,5,-184,-2595
18.611575,17,-249,-2456
18.621251,51,-309,-2372
18.630928,91,-363,-2273
18.640635,92,-388,-2165
18.650635,105,-384,-2125
18.660311,123,-399,-2077
18.670018,162,-409,-2009
18.679695,174,-352,-2050
18.689371,96,-236,-2082
18.699371,26,-152,-1984
18.709078,3,-152,-1847
18.718755,-47,-193,-1695
18.728431,-100,-247,-1541
18.738138,-140,-302,-1388
18.748138,-158,-338,-1236
18.757815,-186,-352,-1127
18.767491,-242,-299,-1054
18.777198,-275,-152,-1083
18.786875,-333,7,-1229
18.796875,-454,117,-1340
18.806582,-558,117,-1320
18.816258,-509,3,-1225
18.825935,-427,-100,-1140
18.835642,-438,-143,-1109
18.845642,-402,-124,-1158
18.855318,-443,-68,-1281
18.865026,-574,-17,-1384
18.874702,-565,42,-1475
18.884379,-563,85,-1631
18.894379,-625,114,-1745
18.904086,-658,132,-1840
18.913762,-715,78,-1948
18.923469,-763,-13,-1965
18.933146,-758,-88,-1959
18.943146,-691,-143,-2002
18.952822,-675,-168,-1990
18.962529,-749,-199,-1979
18.972206,-741,-202,-2047
18.981913,-691,-136,-2091
18.991913,-688,-77,-2079
19.1589,-631,-59,-2088
19.20973,-499,-104,-2098
19.30649,-445,-143,-2075
19.40649,-386,-206,-2050
19.50326,-342,-245,-2006
19.60033,-334,-224,-1970
19.69709,-354,-170,-1941
19.79416,-379,-108,-1931
19.89416,-425,-58,-1956
19.99093,-452,-42,-1970
19.108769,-409,-33,-1954
19.245333,-509,5,-2034
19.255040,-522,17,-2054
19.264717,-527,23,-2066
19.274393,-517,16,-2065
19.284393,-493,-4,-2047
19.294100,-483,-6,-2038
19.303777,-488,-2,-2023
19.313484,-475,3,-1997
19.323160,-440,16,-2011
19.333160,-422,5,-2018
19.391604,-322,-50,-2034
19.401280,-297,-59,-2034
19.410987,-286,-108,-2029
19.420664,-274,-111,-2041
19.430664,-363,-75,-2015
19.440371,-375,-84,-1977
19.450047,-265,-75,-2018
19.459724,-327,-49,-2015
19.469431,-379,-74,-1972
19.479431,-342,-108,-1995
19.489108,-361,-111,-1997
19.498784,-365,-122,-1970
19.508491,-347,-142,-1972
19.518168,-343,-152,-1973
19.528168,-340,-167,-1963
19.537875,-317,-179,-1941
19.576935,-349,-92,-2054
19.586611,-349,-102,-2047
19.596318,-333,-124,-2045
19.605995,-320,-133,-2031
19.615671,-308,-147,-2009
19.625671,-308,-152,-2029
19.635378,-311,-125,-2043
19.645055,-284,-117,-2040
19.654762,-265,-117,-2029
19.664438,-288,-113,-2023
20.395762,-263,-215,-1975
20.405762,-261,-220,-1970
20.415469,-274,-188,-1963
20.425145,-286,-158,-1972
20.434852,-292,-165,-1991
20.444529,-290,-172,-1986
20.454529,-284,-181,-1986
20.464205,-277,-177,-2013
20.473912,-275,-165,-2029
20.483589,-283,-179,-2045
20.902987,-179,-168,-2016
20.912694,-179,-168,-2022
20.922370,-184,-147,-2034
20.932047,-197,-140,-2052
20.942047,-208,-145,-2059
20.951754,-202,-167,-2045
20.961431,-181,-200,-2018
20.971138,-172,-222,-2002
20.980814,-181,-220,-2007
20.990814,-192,-209,-2007
21.88318,-259,-234,-1897
21.97994,-243,-236,-1922
21.107701,-247,-259,-1929
21.117378,-240,-261,-1900
21.127085,-150,-279,-1882
21.137085,-93,-325,-1866
21.146761,-138,-325,-1843
21.156468,-177,-275,-1831
21.166145,-209,-231,-1820
21.175852,-247,-206,-1854
21.195528,-302,-168,-2000
21.205205,-254,-177,-2025
21.214912,-215,-209,-2043
21.224589,-211,-211,-2066
21.234589,-200,-197,-2095
21.244296,-174,-217,-2109
21.253972,-134,-222,-2136
21.263679,-129,-200,-2190
21.273356,-154,-186,-2215
21.283356,-165,-140,-2197
21.332123,-138,-261,-2107
21.341799,-133,-297,-2116
21.351506,-125,-284,-2131
21.361183,-134,-274,-2129
21.370859,-167,-272,-2129
21.380859,-174,-245,-2125
21.390566,-172,-243,-2111
21.400243,-208,-268,-2084
21.409950,-243,-283,-2063
21.419626,-256,-302,-2020
21.449010,-213,-409,-1941
21.458686,-175,-433,-1904
21.468393,-145,-399,-1913
21.478393,-167,-381,-1940
21.488070,-186,-386,-1988
21.497777,-161,-345,-2050
21.507453,-161,-297,-2129
21.517130,-183,-288,-2148
21.527130,-211,-311,-2065
21.536837,-250,-358,-1997
21.556190,-195,-459,-1954
21.565897,-138,-477,-1936
21.575897,-122,-447,-1957
21.585574,-149,-452,-2004
21.595281,-167,-459,-2047
21.604957,-184,-392,-2111
21.614664,-204,-302,-2152
21.624664,-190,-308,-2123
21.634341,-200,-372,-2097
21.644048,-224,-411,-2041
21.673431,-243,-495,-1922
21.683108,-254,-470,-1927
21.692784,-259,-461,-1975
21.702491,-249,-438,-2007
21.712168,-225,-411,-1997
21.722168,-240,-417,-1961
21.731844,-258,-431,-1927
21.741551,-268,-447,-1902
21.751228,-258,-463,-1906
21.760904,-204,-472,-1922
21.799995,-181,-395,-2025
21.809672,-167,-379,-2079
21.819672,-134,-374,-2054
21.829379,-122,-383,-2022
21.839055,-149,-429,-2006
21.848732,-134,-461,-1982
21.858439,-109,-461,-1959
21.868439,-99,-443,-1961
21.878115,-84,-420,-2007
21.887822,-84,-408,-2063
22.63476,-163,-431,-1947
22.73183,-174,-449,-1948
22.82860,-167,-452,-1941
22.92537,-152,-461,-1923
22.102244,-156,-458,-1929
22.112244,-175,-434,-1950
22.121920,-172,-429,-1950
22.131627,-161,-445,-1943
22.141304,-161,-449,-1945
22.151011,-149,-449,-1932
22.277898,-195,-363,-2038
22.287574,-211,-352,-2054
22.297281,-200,-352,-2057
22.307281,-197,-352,-2040
22.316958,-218,-349,-2041
22.326634,-195,-370,-2054
22.336341,-170,-386,-2052
22.346018,-188,-365,-2018
22.356018,-192,-349,-2004
22.365725,-181,-345,-2057
22.521672,-174,-379,-1943
22.531379,-167,-413,-1934
22.541056,-167,-436,-1961
22.551056,-168,-411,-1963
22.560763,-159,-392,-1963
22.570439,-145,-399,-1970
22.580116,-150,-425,-1979
22.589823,-149,-425,-1990
22.599823,-131,-406,-1991
22.609499,-134,-399,-2007
33.608673,-115,-500,-1947
33.618349,-111,-497,-1950
33.628057,-109,-483,-1950
33.637733,-120,-477,-1954
33.647410,-120,-470,-2007
33.657410,-118,-458,-2036
33.667117,-131,-449,-2004
33.676793,-152,-450,-1993
33.686500,-167,-474,-1997
33.696177,-158,-486,-1993
35.841558,-47,-477,-2091
35.851234,-36,-479,-2086
35.860941,-52,-477,-2073
35.870941,-72,-468,-2059
35.880618,-93,-465,-2043
35.890294,-93,-467,-2052
35.900001,-74,-458,-2043
35.909678,-79,-443,-2034
35.919678,-75,-454,-2070
35.929354,-50,-475,-2088
35.978121,-4,-488,-1988
35.987828,-25,-499,-1982
35.997505,-56,-502,-1959
36.7212,-86,-475,-1956
36.17212,-102,-450,-1986
36.26888,-117,-440,-2009
36.36565,-134,-424,-1984
36.46272,-140,-420,-1952
36.55948,-154,-442,-1950
36.65948,-197,-477,-1943
36.124422,-234,-472,-2043
36.134099,-227,-459,-2036
36.143776,-231,-465,-2036
36.153483,-229,-479,-2063
36.163483,-242,-468,-2050
36.173159,-270,-454,-1995
36.182866,-283,-474,-1934
36.192543,-299,-497,-1884
36.202219,-309,-504,-1850
36.212219,-297,-517,-1852
36.270693,-149,-577,-1950
36.280370,-138,-558,-1990
36.290077,-165,-550,-1993
36.299753,-170,-525,-1988
36.309753,-161,-488,-1975
36.319460,-168,-483,-1963
36.329137,-172,-470,-1991
36.338844,-188,-449,-2002
36.348520,-195,-438,-2040
36.358520,-167,-397,-2111
36.387580,-47,-338,-2156
36.397287,16,-325,-2140
36.407287,39,-358,-2138
36.416964,58,-404,-2131
36.426671,105,-424,-2050
36.436348,141,-440,-1993
36.446055,157,-467,-1997
36.456055,162,-490,-2011
36.465731,166,-513,-2023
36.475438,185,-531,-2016
36.504791,201,-511,-1907
36.514498,141,-517,-1866
36.524175,119,-499,-1857
36.533882,110,-490,-1816
36.543558,80,-502,-1747
36.553558,39,-524,-1707
36.563265,7,-568,-1686
36.572942,-17,-588,-1682
36.582649,-67,-575,-1702
36.592325,-127,-549,-1756
36.612002,-136,-459,-1897
36.621709,-152,-467,-1923
36.631385,-179,-467,-1968
36.641092,-186,-427,-1981
36.651092,-197,-431,-1954
36.660769,-200,-449,-1938
36.670476,-181,-411,-1956
36.680152,-167,-415,-1972
36.689860,-158,-450,-1975
36.699860,-138,-434,-1991
36.728920,-27,-377,-2066
36.738627,-17,-352,-2091
36.748627,-4,-365,-2098
36.758303,-2,-384,-2047
36.767980,-20,-374,-2038
36.777687,-42,-388,-2048
36.787363,-38,-404,-2020
36.797363,-34,-409,-1995
36.807070,-36,-415,-1977
36.816747,-38,-404,-1975
37.70259,-74,-299,-2061
37.79935,-56,-302,-2070
37.89935,-38,-331,-2065
37.99642,-43,-352,-2059
37.109319,-72,-365,-2027
37.119026,-88,-379,-2018
37.128702,-83,-375,-2025
37.138702,-83,-352,-1998
37.148409,-68,-322,-2011
37.158086,-54,-327,-2050
37.577545,-61,-436,-1959
37.587252,-72,-427,-1941
37.596929,-58,-408,-1943
37.606605,-70,-395,-1968
37.616312,-86,-397,-1975
37.626312,-77,-420,-1963
37.635989,-68,-445,-1968
37.645696,-79,-450,-1975
37.655372,-67,-450,-1995
37.665079,-63,-450,-2009
41.497777,-108,-350,-2032
41.507484,-118,-372,-2027
41.517161,-109,-383,-2020
41.527161,-104,-393,-2022
41.536837,-113,-408,-2007
41.546544,-97,-418,-1993
41.556221,-79,-413,-2000
41.565928,-79,-399,-2015
41.575928,-75,-384,-2025
41.585604,-95,-372,-2027
44.364657,-106,-425,-1922
44.374333,-102,-424,-1934
44.384040,-109,-409,-1961
44.393717,-118,-402,-1975
44.403717,-108,-400,-2007
44.413424,-79,-377,-2038
44.423100,-77,-358,-2061
44.432808,-100,-367,-2081
44.442484,-109,-375,-2084
44.452484,-104,-384,-2068
44.501251,-45,-402,-1966
44.510928,-40,-422,-1957
44.520604,-42,-424,-1956
44.530311,-50,-415,-1968
44.539988,-50,-409,-1979
44.549988,-61,-404,-1979
44.559695,-93,-408,-2002
44.569371,-93,-411,-2041
44.578710,-70,-395,-2041
44.588813,-79,-386,-2032
47.377965,-40,-438,-1932
47.387641,-42,-434,-1941
47.397349,-42,-445,-1943
47.407349,-50,-449,-1907
47.417025,-70,-442,-1904
47.426702,-93,-443,-1929
47.436409,-111,-436,-1948
47.446085,-99,-427,-1954
47.456085,-88,-440,-1961
47.465792,-100,-452,-1995
47.533943,-63,-354,-2095
47.543619,-56,-350,-2107
47.553619,-67,-343,-2120
47.563326,-52,-345,-2118
47.573003,-27,-347,-2095
47.582679,-27,-358,-2095
47.592386,-18,-370,-2091
47.602386,0,-388,-2059
47.612063,5,-395,-2029
47.621770,17,-377,-1995
48.41229,33,-356,-2098
48.50906,48,-370,-2134
48.60613,57,-395,-2081
48.70289,82,-425,-2061
48.79996,169,-440,-2077
48.89996,217,-456,-2007
48.99673,212,-465,-1963
48.109380,207,-434,-1954
48.119056,182,-409,-1943
48.128733,153,-388,-1982
48.187500,23,-440,-1973
48.197207,10,-424,-1984
48.206883,10,-408,-1991
48.216590,16,-440,-1970
48.226267,32,-477,-1932
48.236267,58,-488,-1904
48.245943,69,-511,-1879
48.255651,48,-513,-1865
48.265327,42,-486,-1881
48.275034,67,-481,-1936
48.314094,94,-420,-2048
48.323771,67,-424,-2043
48.333771,46,-406,-2034
48.343478,76,-392,-2048
48.353154,158,-388,-2102
48.362831,226,-383,-2100
48.372538,207,-388,-2006
48.382538,174,-409,-1963
48.392214,198,-427,-1979
48.401921,199,-431,-2013
48.460365,82,-383,-2056
48.470041,108,-352,-2081
48.480041,133,-383,-2075
48.489748,103,-417,-1920
48.499425,141,-513,-2011
48.509132,142,-461,-1925
48.518808,-54,-202,-1456
48.528808,-15,-443,-1856
48.538516,155,-874,-2029
48.548192,205,-884,-1572
48.557899,226,-815,-1784
48.567576,126,-779,-1881
48.577576,92,-683,-1784
48.587283,135,-556,-1995
48.596959,130,-418,-2118
48.606666,117,-333,-2138
48.616343,87,-318,-2170
48.626343,51,-333,-2147
48.636019,66,-367,-2100
48.645726,128,-400,-2075
48.655433,212,-443,-2068
48.665110,296,-497,-2065
48.675110,337,-533,-2068
48.684817,346,-508,-2077
48.704170,278,-399,-2093
48.713877,242,-411,-2104
48.723877,205,-429,-2072
48.733553,171,-436,-2047
48.743260,174,-433,-2040
48.752937,166,-447,-2029
48.762644,144,-470,-2002
48.772644,180,-479,-1977
48.782320,198,-517,-1998
48.792027,139,-552,-1990
48.957682,105,-534,-1886
48.967682,137,-599,-1877
48.977358,149,-672,-1865
48.987065,124,-708,-1845
48.996742,99,-708,-1859
49.6449,55,-674,-1873
49.16449,3,-627,-1834
49.26125,-40,-609,-1832
49.35832,-81,-609,-1850
49.45509,-95,-606,-1861
49.84599,-40,-709,-1838
49.94276,-38,-697,-1877
49.103953,-40,-633,-1973
49.113953,-13,-575,-2061
49.123660,12,-525,-2091
49.133336,-24,-492,-2093
49.143043,-95,-481,-2093
49.152720,-118,-497,-2081
49.162720,-75,-500,-2084
49.172427,-49,-447,-2118
49.191810,-118,-343,-2159
49.201487,-70,-334,-2141
49.211487,-11,-361,-2104
49.221194,39,-413,-2102
49.230870,141,-488,-2043
49.240577,196,-595,-1950
49.250254,144,-693,-1907
49.260254,80,-738,-1879
49.269961,26,-724,-1834
49.279637,-29,-670,-1815
49.289344,-54,-616,-1888
49.299021,-36,-565,-1950
49.309021,0,-529,-1938
49.318728,12,-533,-1931
49.328404,14,-538,-1932
49.357788,116,-429,-2047
49.367464,94,-383,-2115
49.377172,51,-333,-2152
49.386848,0,-293,-2148
49.396555,-47,-267,-2157
49.406555,-70,-238,-2173
49.416232,-65,-222,-2113
49.425939,-93,-238,-2015
49.435615,-93,-274,-2031
49.445322,8,-336,-2057
49.455322,60,-379,-2041
49.464999,42,-358,-2043
49.474675,35,-343,-1965
49.484382,12,-365,-1923
49.494059,-27,-345,-1954
49.504059,-56,-304,-1947
49.513766,-90,-258,-1952
49.523442,-100,-215,-1931
49.533149,-102,-252,-1963
49.562533,10,-392,-1793
49.572209,-9,-492,-1802
49.581916,3,-504,-1781
49.591593,44,-443,-1797
49.601593,103,-377,-1854
49.611300,107,-324,-1918
49.620976,28,-317,-1916
49.630683,-11,-329,-1934
49.640360,24,-297,-1998
49.650360,8,-279,-1984
49.660067,-61,-290,-1982
49.679451,10,-188,-2100
49.689127,42,-142,-2107
49.699127,14,-127,-2016
49.708834,-70,-145,-1982
49.718511,-61,-142,-2043
49.728218,3,-227,-2120
49.737894,-54,-324,-2056
49.747894,-90,-242,-1995
49.757601,-13,-133,-2082
49.767278,-27,-100,-2047
49.776985,-108,-97,-1988
49.786661,-22,-152,-2084
49.796661,73,-195,-2120
49.806368,30,-152,-2059
49.816045,-18,-86,-2063
49.825721,-136,-40,-2098
49.835428,-133,-47,-2057
49.845428,46,-100,-2090
49.855105,89,-131,-2138
49.864812,62,-106,-2025
49.874488,91,-54,-2022
49.884195,21,-42,-2061
49.894195,-81,-97,-1965
49.903872,35,-117,-2009
49.913579,67,-102,-2040
49.923256,-77,-138,-1854
49.932963,-47,-150,-1847
49.942963,10,-93,-2027
49.952639,-29,0,-2073
49.962316,-61,10,-2102
49.972023,-72,-49,-2179
49.981699,-43,-63,-2136
49.991699,-13,-93,-2034
50.1406,17,-154,-1995
50.11083,-22,-143,-1963
50.20790,-142,-134,-1973
50.30466,-159,-158,-2063
50.40466,-74,-88,-2077
50.50173,24,44,-2081
50.59850,60,53,-2156
50.69557,23,8,-2182
50.79233,-27,82,-2145
50.89233,-109,157,-2132
50.98910,-131,162,-2138
50.108617,-188,182,-2091
50.118293,-338,264,-2106
50.128000,-242,283,-2220
50.138000,-97,228,-2207
50.147677,-163,208,-2102
50.157384,-234,182,-2029
50.167060,-349,174,-1932
50.176767,-472,212,-1879
50.186767,-465,199,-1913
50.196444,-456,171,-1972
50.206151,-513,230,-1968
50.215828,-640,337,-1915
50.225504,-702,330,-1986
50.235504,-563,135,-2022
50.245211,-499,-31,-1852
50.254888,-683,7,-1736
50.264595,-833,237,-1779
50.274271,-854,498,-1848
50.284271,-833,405,-1865
50.293978,-722,67,-1863
50.303655,-656,-109,-1890
50.313362,-690,-68,-1948
50.323038,-608,-92,-2022
50.333038,-504,-168,-2048
50.342715,-561,-24,-1977
50.352422,-592,48,-1870
50.362098,-490,-92,-1884
50.371805,-522,-163,-1932
50.381805,-736,-152,-1872
50.391482,-879,-75,-1799
50.401158,-854,-33,-1797
50.410865,-683,-213,-1806
50.420542,-568,-292,-1731
50.430542,-534,-211,-1743
50.440249,-641,-259,-2338
50.449925,-797,-63,-2381
50.459632,-327,128,-1754
50.469309,-43,-159,-2520
50.479309,-572,-370,-2793
50.488985,-875,-358,-1916
50.498693,-916,-375,-2065
50.508369,-1250,-425,-2318
50.518076,-1357,-452,-2007
50.528076,-691,-720,-1682
50.537753,-258,-1009,-1450
50.547429,-354,-909,-1174
50.557136,-286,-979,-1138
50.566813,-559,-1033,-1415
50.576813,-1040,-990,-1463
50.586520,-943,-1261,-1804
50.596196,-741,-1154,-2202
50.605903,-683,-879,-1736
50.615580,-349,-1174,-1411
50.625580,-65,-1440,-1559
50.635256,-168,-909,-1707
50.644963,-336,7,-2191
50.654640,-334,-118,-2281
50.664347,-390,-916,-1815
50.674347,-433,-1066,-1832
50.684023,-324,-999,-1816
50.693730,-215,-958,-1620
50.703407,-33,-816,-1791
50.713083,-13,-911,-1772
50.723083,-250,-1204,-1606
50.732790,-163,-1199,-1699
50.742467,151,-1052,-1668
50.752174,-9,-1272,-1609
50.761850,-418,-1286,-1768
50.771850,-456,-1095,-1791
50.781558,-284,-1131,-1641
50.791234,-308,-1232,-1600
50.800911,-488,-1254,-1749
50.810618,-592,-1088,-1809
50.820618,-349,-983,-1740
50.830294,76,-836,-1724
50.840001,192,-763,-1675
50.849678,151,-1045,-1547
50.859354,121,-1061,-1582
50.869354,12,-1034,-1836
50.879061,169,-1011,-2025
50.888738,130,-267,-2227
50.898445,-470,299,-2623
50.908121,-600,98,-2814
50.918121,-234,-436,-2286
50.927798,-254,-997,-1841
50.937505,-452,-1243,-1957
50.947181,-245,-1168,-1931
50.956888,-65,-1041,-1791
50.966888,-24,-1075,-1747
50.976565,380,-1016,-2138
50.986272,41,-1229,-1872
50.995948,-915,-1890,-668
51.5625,-747,-1713,-1013
51.15625,-208,-1024,-1991
51.25332,24,-1232,-1824
51.35008,60,-1390,-1657
51.44715,-206,-1170,-1816
51.54392,-474,-1847,-1329
51.64392,-933,-2495,-740
51.74068,-1282,-2150,-1470
51.83776,-1040,-1588,-2539
51.93452,-467,-1234,-2725
51.103159,-72,-1334,-2241
51.113159,-13,-1738,-1481
51.122836,-261,-1663,-1122
51.132512,-622,-1550,-1293
51.142219,-890,-783,-1672
51.151896,-1268,1665,-1554
51.161896,-1159,1367,-616
51.171603,-397,-1440,-442
51.181279,26,-1722,-1281
51.190986,58,-1450,-1527
51.200663,37,-1982,-1077
51.210663,-97,-2102,-508
51.220339,-377,-2022,-127
51.230046,-386,-1856,-136
51.239723,21,-1959,-333
51.249430,169,-2038,-324
51.259430,-63,-2131,14
51.269106,-397,-2673,132
51.278813,-525,-2925,-236
51.288490,-408,-2491,-658
51.298197,-409,-1961,-811
51.308197,39,-1666,-808
51.317873,755,-1482,-1086
51.327580,492,-1649,-1413
51.337257,-279,-2493,-1231
51.346933,-572,-3407,-859
51.356933,-540,-3713,-843
51.366641,-584,-3743,-1177
51.376317,-877,-3468,-1438
51.386024,-654,-2970,-1475
51.395701,724,-2889,-1208
51.405701,1051,-2588,-854
51.415408,-58,-1665,-990
51.425084,-84,-908,-1274
51.434791,398,-547,-1486
51.444468,535,-383,-1757
51.454468,671,-267,-1856
51.464144,664,-202,-1990
51.473851,935,-163,-2331
51.483528,1176,67,-2365
51.493235,837,82,-1884
51.503235,480,-358,-1290
51.512911,307,-458,-827
51.522618,232,237,-968
51.532295,287,855,-1136
51.542002,374,939,-933
51.552002,487,1039,-1274
51.561678,378,955,-1538
51.571355,62,733,-1402
51.581062,-99,737,-1575
51.590738,-129,708,-1559
51.600738,-397,362,-1327
51.610445,-922,-293,-1607
51.620122,-1225,-583,-1852
51.629798,-1163,-641,-1709
51.639506,-1097,-981,-1509
51.649506,-1293,-981,-1200
51.659182,-1531,-713,-1038
51.668889,-1591,-691,-986
51.678566,-1722,-647,-665
51.688273,-1906,-361,-277
51.698273,-1870,-320,44
51.707949,-1666,-640,385
51.717656,-1538,-659,658
51.727333,-1586,-477,899
51.737040,-1618,-445,1126
51.747040,-1524,-540,1283
51.756716,-1391,-902,1280
51.766423,-1595,-1331,1165
51.776100,-2254,-1649,1158
51.785807,-2595,-1902,1065
51.795807,-2563,-1884,746
51.805483,-2654,-1693,269
51.815190,-2672,-1499,-247
51.824867,-2539,-1300,-595
51.834543,-2459,-1174,-883
51.844543,-2361,-1097,-1161
51.854250,-2129,-1045,-1293
51.863927,-1931,-929,-1420
51.873634,-1877,-708,-1650
51.883310,-1932,-536,-1850
51.893310,-2022,-543,-2125
51.903017,-1945,-620,-2493
51.912694,-1632,-613,-2582
51.922401,-1183,-350,-2373
51.932078,-738,191,-2136
51.942078,-529,498,-1850
51.951785,-581,341,-1307
51.961461,-706,76,-654
51.971168,-738,30,-58
51.980845,-499,123,312
51.990845,33,-8,91
52.552,676,-36,-274
52.10228,1144,353,-390
52.19905,1548,739,-597
52.29612,1990,1246,-979
52.39612,1919,1824,-1141
52.49288,1728,1792,-958
52.58995,2019,1271,-963
52.68672,1942,960,-1149
52.78379,1399,1105,-1172
52.88379,1240,1199,-1266
52.98055,1328,1033,-1549
52.107762,1221,1060,-1709
52.117439,1008,1146,-1597
52.127146,833,944,-1493
52.137146,546,689,-1490
52.146822,-72,712,-1606
52.156529,-438,823,-2218
52.166206,-165,803,-2923
52.175882,137,917,-3122
52.185882,296,1135,-3152
52.195589,494,1182,-3102
52.205266,637,1074,-2739
52.214973,542,928,-2300
52.224650,196,796,-2034
52.234650,-111,812,-1888
52.244357,-224,1014,-1656
52.254033,-199,1060,-1179
52.263740,-118,769,-570
52.273417,-168,385,7
52.283417,-400,44,569
52.293124,-611,-15,880
52.302800,-834,330,873
52.312507,-1265,428,982
52.322184,-1577,85,1189
52.332184,-1631,-227,1285
52.341891,-1772,-474,1326
52.351567,-1931,-729,1221
52.361274,-1995,-954,980
52.370981,-2177,-1165,801
52.380981,-2263,-1406,701
52.390658,-2013,-1602,683
52.400365,-1675,-1668,792
52.410041,-1450,-1649,817
52.419748,-1532,-1677,715
52.429748,-2122,-1863,571
52.439425,-2718,-2070,274
52.449132,-2798,-2231,5
52.458808,-2523,-2379,-118
52.468516,-1961,-2386,-365
52.478516,-1170,-2191,-911
52.488192,-659,-1795,-1797
52.497899,-684,-1197,-2668
52.507576,-634,-815,-3023
52.517283,-383,-1040,-3275
52.527283,-590,-1361,-3600
52.536959,-954,-1190,-3341
52.546666,-1106,-825,-2797
52.556343,-1365,-965,-2547
52.566050,-1597,-1479,-2252
52.576050,-1481,-1482,-1640
52.585726,-877,-1025,-1125
52.595433,-38,-674,-1429
52.605110,708,-175,-2450
52.614817,1356,676,-3313
52.624817,1656,1408,-3632
52.634524,1676,1740,-3536
52.644200,1692,1748,-3350
52.653907,1499,1348,-3173
52.663584,994,469,-2982
52.673584,287,-590,-2898
52.683291,-525,-1281,-2822
52.692967,-1181,-1400,-2841
52.702674,-1318,-1200,-3038
52.712351,-1152,-1104,-3434
52.722351,-1040,-1149,-4336
52.732058,-683,-749,-5273
52.741735,46,110,-5378
52.751442,785,848,-4775
52.761118,1258,1326,-3841
52.771118,1408,1806,-2688
52.780825,1351,2449,-1459
52.790502,1140,2822,-297
52.800209,717,2531,714
52.809885,141,1812,1590
52.819885,-472,910,2228
52.829592,-952,141,2512
52.839269,-1095,-122,2538
52.848976,-956,-79,2346
52.858652,-824,-4,2055
52.868652,-836,116,1990
52.878359,-950,1,2147
52.888036,-1165,-449,2251
52.897743,-1527,-900,2099
52.907419,-2022,-1309,1565
52.917419,-2557,-1570,724
52.927096,-3107,-1572,-331
52.936803,-3530,-1618,-1377
52.946479,-3350,-1466,-1923
52.956186,-2361,-929,-2170
52.966186,-1336,-502,-2748
52.975863,-1000,-199,-3400
52.985570,-1013,117,-3432
52.995246,-1222,203,-2891
53.4953,-1657,126,-1866
53.14953,-1566,248,-233
53.24661,-731,723,1042
53.34337,155,1380,987
53.44014,808,1844,7
53.53721,1339,2056,-1049
53.63721,1221,2033,-1334
53.73397,362,1508,-1115
53.83104,-220,858,-1254
53.92781,-400,733,-1059
53.102488,-490,760,-440
53.112488,-506,451,-327
53.122164,-634,-9,-295
53.131871,-500,-509,-165
53.141548,-49,-915,-213
53.151255,116,-1338,-365
53.161255,-59,-2107,-1188
53.170931,-377,-2568,-2218
53.180608,-597,-2261,-2620
53.190315,-683,-1913,-2950
53.199991,-908,-2020,-2859
53.209991,-868,-2622,-2141
53.219698,-349,-3279,-1686
53.229405,14,-3393,-1372
53.239082,28,-3177,-933
53.248758,-2,-2902,-636
53.258758,92,-2557,-477
53.268465,210,-2368,-329
53.278142,130,-2304,-242
53.287849,-115,-2116,-329
53.297526,-393,-1950,-381
53.307526,-575,-1973,-238
53.317233,-663,-1972,-263
53.326909,-772,-1800,-584
53.336616,-963,-1718,-991
53.346293,-1141,-1897,-1395
53.356293,-1083,-1995,-1579
53.366000,-877,-1963,-1409
53.375676,-808,-1986,-1300
53.385383,-838,-1763,-1504
53.395060,-770,-1274,-1656
53.405060,-577,-1058,-1568
53.414767,-509,-1159,-1536
53.424443,-750,-1354,-1718
53.434150,-1050,-1659,-1781
53.443827,-1320,-1538,-1652
53.453827,-1516,-1015,-1572
53.463534,-1211,-858,-1402
53.473210,-825,-624,-1183
53.482917,-825,-170,-1427
53.492594,-350,-204,-1918
53.502594,-152,-270,-1799
53.512270,-890,-134,-1759
53.521977,-997,-140,-2100
53.531654,-633,-109,-1932
53.541361,-824,-115,-1809
53.551361,-1079,-42,-1959
53.561037,-883,-43,-2038
53.570745,-824,-147,-2125
53.580421,-1025,-249,-1997
53.590128,-927,-567,-1736
53.600128,-756,-752,-1563
53.609805,-741,-784,-1479
53.619512,-793,-716,-1452
53.629188,-831,-540,-1406
53.638895,-843,-534,-1434
53.648895,-850,-733,-1409
53.658572,-783,-1029,-1199
53.668279,-677,-1241,-1111
53.677955,-706,-1456,-1122
53.687662,-879,-1920,-1018
53.697662,-775,-2315,-890
53.707339,-470,-2345,-741
53.717046,-583,-2161,-459
53.726722,-979,-1770,-74
53.736429,-1111,-1516,-208
53.746429,-1315,-1393,-711
53.756106,-1481,-1411,-372
53.765813,-949,-1891,58
53.775489,-634,-1977,-67
53.785196,-924,-1656,157
53.795196,-1008,-1529,542
53.804873,-1020,-1400,799
53.814580,-1291,-1497,1040
53.824256,-1536,-1857,1135
53.833964,-1575,-1972,1007
53.843964,-1468,-1763,853
53.853640,-1368,-1625,592
53.863347,-1324,-1759,112
53.873024,-1154,-2057,-124
53.882700,-1079,-2473,-215
53.892700,-1236,-2848,-372
53.902407,-1306,-2888,-400
53.912084,-1177,-2604,-556
53.921791,-954,-2191,-802
53.931467,-927,-1888,-754
53.941467,-1029,-1872,-659
53.951174,-984,-1975,-759
53.960851,-984,-1961,-911
53.970558,-1086,-1850,-966
53.980234,-1033,-1718,-943
53.990234,-849,-1366,-983
53.999941,-774,-981,-1156
54.9618,-699,-933,-1543
54.19325,-665,-752,-1688
54.29001,-665,-816,-1465
54.39001,-634,-1208,-1420
54.48708,-702,-820,-1520
54.58385,-684,-217,-1259
54.68092,-772,264,-1043
54.77768,-811,671,-1784
54.87768,-534,458,-2331
54.97475,-418,274,-2041
54.107152,-527,328,-1948
54.116859,-540,237,-2052
54.126536,-467,219,-2125
54.136536,-545,249,-2166
54.146243,-643,99,-2088
54.155919,-499,-133,-1948
54.165626,-395,-54,-1982
54.175303,-479,-145,-1863
54.185303,-486,-802,-1443
54.195010,-345,-986,-1643
54.204686,-272,-752,-1922
54.214363,-349,-734,-1684
54.224070,-347,-686,-1845
54.234070,-324,-677,-2138
54.243746,-327,-779,-1984
54.253453,-174,-845,-1888
54.263130,-84,-975,-2038
54.272837,-188,-1266,-2040
54.282837,-52,-1557,-1972
54.292513,280,-1715,-2075
54.302220,349,-1829,-2129
54.311897,149,-1895,-2093
54.321604,58,-1872,-2207
54.331604,19,-1888,-2359
54.341280,-288,-2065,-2379
54.350987,-225,-2343,-2473
54.360664,341,-2472,-2797
54.370371,707,-2265,-3170
54.380371,849,-1788,-3222
54.390047,707,-1307,-2902
54.399755,303,-1188,-2390
54.409431,-90,-1336,-1749
54.419138,-490,-1415,-1109
54.429138,-677,-1072,-552
54.438815,-683,-20,-50
54.448522,-697,757,655
54.458198,-459,558,1087
54.467905,-122,214,999
54.477905,166,230,976
54.487582,624,442,783
54.497289,1076,674,387
54.506965,1560,953,101
54.516672,2269,1376,-245
54.526672,2901,1642,-722
54.536349,3142,1567,-1516
54.546056,2944,1355,-2570
54.555732,2626,1010,-3170
54.565439,2353,441,-2995
54.575439,2053,-165,-2520
54.585116,1896,-620,-2159
54.594823,1856,-1045,-2057
54.604499,1990,-1366,-2290
54.614206,2271,-1327,-2440
54.624206,2583,-1013,-2306
54.633883,3260,-688,-2093
54.643590,3654,-295,-1916
54.653266,3253,66,-1970
54.662974,2830,205,-2134
54.672974,2472,471,-2056
54.682650,2012,885,-1640
54.692357,1521,1057,-913
54.702034,846,1064,-49
54.711741,135,1108,633
54.721741,-502,1076,1090
54.731417,-1154,694,1430
54.741124,-1654,158,1526
54.750801,-1861,-179,1399
54.760508,-1970,-686,1174
54.770508,-2263,-1359,787
54.780184,-2557,-1809,274
54.789861,-2520,-2020,-465
54.799568,-2198,-2002,-1595
54.809244,-1725,-1941,-3077
54.819244,-1311,-1907,-4396
54.828951,-954,-1747,-4679
54.838658,-434,-1475,-4079
54.848335,-74,-1034,-3393
54.858042,-22,-620,-2931
54.868042,-83,-375,-2611
54.877718,-320,-72,-1952
54.887425,-738,346,-979
54.897102,-920,985,-175
54.906809,-259,1742,421
54.916809,783,2340,585
54.926485,1348,2465,116
54.936193,1519,1981,-500
54.945869,1623,1585,-884
54.955576,1724,1646,-1056
54.965576,1731,1635,-1191
54.975253,1496,1353,-1363
54.984960,1269,996,-1538
54.994636,1264,673,-1913
55.4343,1285,598,-2263
55.14343,1237,548,-2302
55.24020,1090,183,-2150
55.33696,912,-52,-1973
55.43403,790,-56,-2077
55.53110,651,-229,-2240
55.63110,366,-515,-2065
55.72787,96,-784,-1863
55.82463,28,-902,-1863
55.92170,-195,-990,-1770
55.101847,-542,-1143,-1565
55.111847,-658,-963,-1491
55.121554,-659,-608,-1302
55.131230,-465,-397,-922
55.140937,49,-374,-1159
55.150614,55,-565,-1781
55.160614,-679,-1111,-1461
55.170321,-1011,-1898,-1106
55.179997,-1041,-2365,-1873
55.189704,-1390,-2656,-3032
55.199381,-1570,-2727,-4309
55.209381,-1507,-2422,-5036
55.219088,-1365,-2211,-4639
55.228765,-1052,-2206,-4025
55.238472,-1066,-2195,-3413
55.248148,-1440,-1966,-2373
55.258148,-1572,-1506,-1100
55.267855,-1504,-1013,105
55.277532,-1577,-420,1096
55.287239,-1599,428,1671
55.296915,-1133,1119,1905
55.306915,-417,1546,1787
55.316622,10,1931,1174
55.326299,123,2037,578
55.336006,124,1864,246
55.345713,16,1673,-222
55.355713,-174,1531,-459
55.365389,-318,1456,-377
55.375096,-445,1274,-575
55.384773,-574,955,-713
55.394480,-659,603,-641
55.404480,-774,44,-729
55.414156,-1177,-600,-854
55.423863,-1606,-1099,-1072
55.433540,-1832,-1588,-1200
55.443247,-1877,-1970,-945
55.453247,-1595,-2259,-747
55.462923,-1861,-2525,-845
55.472631,-2581,-2382,-1040
55.482338,-2484,-1915,-1224
55.492014,-1725,-1645,-1265
55.502014,-1306,-1602,-977
55.511721,-1432,-1652,-393
55.521398,-1625,-1922,183
55.531105,-1843,-2329,308
55.540781,-2145,-2543,-74
55.550781,-2290,-2481,-600
55.560488,-2147,-2306,-1224
55.570165,-1807,-2041,-2091
55.579872,-1491,-1659,-3189
55.589548,-1549,-1445,-4243
55.599548,-1925,-1552,-4843
55.609255,-1804,-1713,-5050
55.618932,-1282,-1747,-4787
55.628639,-1220,-1804,-3763
55.638315,-1320,-1888,-2352
55.648315,-1254,-1806,-1002
55.658022,-1306,-1566,8
55.667699,-1575,-833,778
55.677406,-2268,107,1996
55.687082,-2747,396,3524
55.697082,-1786,624,3978
55.706789,-358,1394,2778
55.716496,317,2087,1258
55.726173,487,1824,685
55.735880,282,719,635
55.745880,51,-31,330
55.755557,112,-252,35
55.765264,287,-741,208
55.774940,498,-1175,123
55.784647,878,-713,-804
55.794647,1367,196,-1447
55.804324,1871,401,-1427
55.814031,2356,-58,-1588
55.823707,2583,-481,-1815
55.833414,2517,-658,-1916
55.843414,2328,-697,-2009
55.853091,2140,-1059,-2015
55.862798,2296,-1857,-2572
55.872474,2953,-2198,-3805
55.882181,3788,-1915,-4448
55.892181,4358,-1848,-3952
55.901858,4372,-1890,-3305
55.911565,4178,-1702,-3132
55.921241,4001,-1565,-2798
55.930948,3572,-1549,-2281
55.940948,3099,-1615,-2106
55.950655,2826,-1781,-2115
55.960332,2621,-2002,-2257
55.970039,2392,-2177,-2523
55.979715,2283,-2252,-2702
55.989715,2340,-2232,-2931
55.999422,2394,-2107,-3168
56.9099,2390,-1891,-3025
56.18806,2365,-1566,-2543
56.28483,2406,-1093,-2015
56.38483,2471,-404,-1502
56.48190,2405,417,-924
56.57866,2222,1065,-334
56.67573,2005,1537,164
56.77250,1764,2031,612
56.87250,1540,2412,876
56.96957,1342,2405,848
56.106633,1057,2039,817
56.116340,705,1303,896
56.126017,301,366,801
56.136017,-172,-297,546
56.145724,-490,-704,360
56.155400,-522,-1052,191
56.165107,-365,-1482,-117
56.174784,-263,-2104,-647
56.184784,-406,-2527,-1511
56.194491,-550,-2856,-2443
56.204167,-627,-3241,-2702
56.213874,-758,-2829,-2207
56.223551,-558,-2300,-1757
56.233551,60,-2539,-1715
56.243258,623,-2686,-1627
56.252934,1092,-2623,-2232
56.262641,1771,-2175,-3636
56.272318,2663,-1227,-4327
56.282318,3165,-722,-4712
56.292025,3076,-988,-4737
56.301702,2794,-1481,-3770
56.311409,2422,-1736,-2961
56.321085,2110,-1932,-2772
56.331085,1969,-2063,-2757
56.340792,1962,-1943,-2793
56.350469,2083,-1774,-2884
56.360176,2365,-1540,-3195
56.369852,2753,-1118,-3457
56.379852,2837,-647,-3232
56.389559,2656,-208,-2891
56.399236,2692,139,-2668
56.408943,2817,389,-2313
56.418619,2815,687,-1832
56.428619,2737,1010,-1245
56.438326,2597,1287,-583
56.448003,2547,1633,-150
56.457710,2597,2097,17
56.467386,2535,2476,219
56.477386,2378,2471,408
56.487093,2165,1917,501
56.496770,1799,1269,705
56.506477,1426,955,976
56.516153,1196,442,1057
56.526153,1053,-483,819
56.535860,915,-1625,371
56.545537,544,-2868,-300
56.555244,-170,-3293,-1029
56.564921,-834,-2798,-1341
56.574921,-1197,-2691,-1481
56.584628,-1122,-3455,-1591
56.594304,-629,-4196,-1781
56.604011,-104,-4382,-2243
56.613688,548,-4577,-3038
56.623688,1798,-4186,-4612
56.633395,3335,-2847,-5980
56.643102,4215,-2122,-6064
56.652778,4403,-2136,-5514
56.662485,4378,-2052,-4727
56.672485,4097,-2029,-3830
56.682162,3751,-1918,-3223
56.691869,3601,-1554,-2936
56.701545,3512,-1159,-2711
56.711252,3403,-775,-2470
56.721252,3263,-449,-2359
56.730929,3121,-127,-2297
56.740636,3055,296,-2109
56.750312,3037,717,-1856
56.760019,3030,1051,-1574
56.770019,2935,1344,-1165
56.779696,2678,1583,-659
56.789403,2392,1676,-245
56.799079,2128,1683,-13
56.808787,1806,1726,133
56.818787,1549,1748,371
56.828463,1412,1674,673
56.838170,1317,1548,855
56.847847,1221,1439,1037
56.857554,1207,1244,1283
56.867554,1401,610,1331
56.877230,1424,-349,989
56.886937,1203,-1482,360
56.896614,1151,-3123,-313
56.906321,817,-4211,-931
56.916321,57,-3645,-1590
56.925997,-270,-3097,-2409
56.935704,-17,-3498,-3491
56.945381,439,-3714,-4789
56.955088,1017,-3520,-5912
56.965088,1789,-3043,-6337
56.974764,2630,-2216,-6052
56.984471,3083,-1529,-5445
56.994148,3128,-1391,-4584
57.3855,3103,-1500,-3716
57.13855,3062,-1413,-3295
57.23531,3017,-1113,-3232
57.33238,3008,-706,-3259
57.42915,2990,-308,-3248
57.52622,3006,76,-3243
57.62622,3104,594,-3259
57.72298,3108,1112,-3084
57.82006,2846,1373,-2663
57.91682,2480,1373,-2025
57.101389,1969,1157,-1286
57.111389,1256,899,-609
57.121066,564,749,-140
57.130773,-58,430,-6
57.140449,-461,1,42
57.150156,-638,-97,144
57.160156,-847,14,241
57.169833,-1004,26,435
57.179540,-1024,7,541
57.189216,-1052,8,474
57.198923,-1172,-13,416
57.208923,-1366,-20,289
57.218600,-1541,-102,66
57.228307,-1659,-356,-59
57.237983,-1788,-515,10
57.247690,-1872,-542,160
57.257690,-1825,-550,339
57.267367,-1891,-543,605
57.277074,-2098,-638,737
57.286750,-2122,-725,658
57.296457,-2038,-784,653
57.306457,-2082,-849,712
57.316134,-2154,-883,719
57.325841,-2032,-888,748
57.335517,-2011,-700,780
57.345224,-2206,-590,696
57.355224,-2134,-731,653
57.364901,-2004,-800,655
57.374608,-2066,-811,560
57.384285,-2052,-838,649
57.393992,-2032,-752,828
57.403992,-2000,-650,880
57.413668,-1990,-843,1037
57.423375,-1984,-661,990
57.433052,-2072,-1059,1083
57.442759,-2852,-2725,1183
57.452759,-3361,-2100,39
57.462435,-2686,-388,-400
57.472142,-2007,-529,608
57.481819,-1799,-565,796
57.491526,-1674,-443,537
57.501526,-1552,-608,665
57.511202,-1495,-354,926
57.520909,-1559,-8,1255
57.530586,-1474,21,1548
57.540293,-1322,-286,1726
57.550293,-1327,-375,1767
57.560000,-1227,-104,1749
57.569676,-1088,137,1658
57.579015,-1015,391,1469
57.589119,-1070,460,1301
57.598826,-1347,287,1201
57.608826,-1216,162,1362
57.618502,-941,110,1739
57.628209,-1113,176,1739
57.637886,-1291,91,1555
57.647593,-1416,-158,1655
57.657593,-1625,-233,1573
57.667269,-1682,-361,1283
57.676976,-1706,-575,1230
57.686653,-2061,-634,1135
57.696360,-2445,-668,774
57.706360,-2481,-647,576
57.716036,-2543,-449,566
57.725743,-2725,-420,285
57.735420,-2650,-595,-92
57.745127,-2466,-699,-183
57.755127,-2352,-870,-331
57.764803,-2125,-1066,-624
57.774510,-1865,-1074,-695
57.784187,-1815,-950,-758
57.793894,-1925,-840,-972
57.803894,-1688,-729,-1075
57.813570,-1118,-649,-1165
57.823277,-795,-779,-1538
57.832954,-708,-970,-2032
57.842661,-741,-1004,-2238
57.852661,-752,-933,-2104
57.862338,-586,-793,-1891
57.872045,-608,-643,-1672
57.881721,-850,-483,-1447
57.891428,-749,-392,-1286
57.901428,-383,-424,-1199
57.911105,-83,-422,-1186
57.920812,296,-433,-1311
57.930488,367,-408,-1559
57.940195,269,-568,-1672
57.950195,546,-891,-1713
57.959872,526,-670,-1574
57.969579,723,-750,-1459
57.979255,1394,-1254,-1499
57.988962,1474,-800,-1143
57.998962,1558,-363,-952
58.8639,1847,-443,-900
58.18346,2019,-233,-381
58.28022,2297,7,76
58.37729,2446,123,269
58.47729,2342,148,410
58.57406,2283,48,492
58.67082,2322,-38,517
58.76789,2362,-77,508
58.86466,2440,35,474
58.96466,2480,221,574
58.106173,2580,267,823
58.115849,2544,391,1101
58.125557,2326,512,1194
58.135233,2358,464,901
58.145233,2510,130,714
58.154940,2306,-386,830
58.164617,1669,-290,689
58.174324,1281,74,316
58.184000,1431,35,123
58.194000,1787,74,-86
58.203677,2180,326,-370
58.213384,2353,524,-404
58.223060,2299,533,-368
58.232767,2087,399,-633
58.242767,1903,139,-997
58.252444,1696,-215,-1052
58.262151,1055,-302,-900
58.271827,573,-318,-811
58.281534,398,-493,-765
58.291534,-42,-411,-1033
58.301211,-168,-288,-1659
58.310918,33,-395,-1872
58.320594,-72,-245,-1873
58.330271,-93,103,-2277
58.340271,53,141,-2563
58.349978,44,39,-2441
58.359654,-61,7,-2150
58.369361,-342,-134,-1863
58.379038,-641,-363,-1695
58.389038,-765,-527,-1654
58.398745,-888,-579,-1670
58.408422,-1006,-508,-1697
58.418129,-1011,-336,-1643
58.427805,-1031,-161,-1536
58.437805,-1095,-24,-1550
58.447482,-1013,24,-1472
58.457189,-958,101,-1282
58.466865,-1191,183,-1415
58.476572,-1363,-86,-1688
58.486572,-1497,-581,-1731
58.496249,-1725,-924,-1502
58.505925,-1777,-836,-1122
58.515632,-1929,-588,-1013
58.525309,-2073,-693,-1054
58.535309,-1863,-749,-747
58.545016,-1693,-322,-550
58.554692,-1559,139,-616
58.564369,-1516,0,-515
58.573738,-1922,-458,-775
58.583811,-2213,-740,-1106
58.593811,-2043,-840,-759
58.603518,-1931,-734,-534
58.613194,-2115,-863,-508
58.622901,-2309,-1099,-202
58.632578,-2334,-983,-77
58.642578,-2225,-856,-122
58.652285,-2098,-793,-22
58.661962,-2195,-804,0
58.671669,-2234,-886,1
58.681345,-2029,-843,153
58.691345,-1988,-834,183
58.701022,-2088,-922,135
58.710729,-2161,-1009,235
58.720405,-2259,-1102,432
58.730112,-2359,-1043,601
58.740112,-2229,-800,753
58.749789,-2102,-520,805
58.759496,-2134,-404,762
58.769172,-1600,-363,971
58.778879,-1436,44,960
58.788879,-1882,301,562
58.798556,-1674,-184,564
58.808232,-1711,-568,798
58.817939,-2015,-467,948
58.827616,-1902,-388,1017
58.837616,-1836,-392,949
58.847323,-1832,-352,901
58.856999,-1854,-338,830
58.866676,-1804,-456,930
58.876383,-1529,-634,1330
58.886383,-1506,-650,1580
58.896059,-1866,-263,1681
58.905736,-1859,39,1680
58.915443,-1559,-104,1499
58.925120,-1515,-29,1412
58.935120,-1486,183,1381
58.944827,-1325,212,1303
58.954503,-1218,194,1178
58.964210,-1056,105,1114
58.973887,-904,37,1182
58.983887,-1108,148,1158
58.993594,-925,124,1280
59.3270,-616,-31,1635
59.12977,-1190,196,1737
59.22654,-1336,278,1808
59.32654,-870,174,1944
59.42361,-858,521,1931
59.52037,-866,783,1956
59.61744,-804,714,1855
59.71421,-850,541,1680
59.81421,-720,594,1510
59.91097,-600,401,1608
59.100804,-654,-574,2303
59.110481,-702,-683,2533
59.120157,-674,101,2122
59.130157,-593,228,2067
59.139864,-479,62,2299
59.149541,-342,32,2421
59.159248,-272,171,2062
59.168924,-156,473,1130
59.178924,3,260,937
59.188631,41,-138,1546
59.198308,33,19,1581
59.207985,-9,308,1344
59.217692,0,303,1456
59.227692,199,32,1794
59.237368,416,-222,2094
59.247075,466,-267,2231
59.256752,567,-252,2283
59.266459,501,30,2131
59.276459,114,942,1644
59.286135,367,1342,1323
59.295842,1119,585,1583
59.305519,1315,94,1837
59.315226,1080,310,1835
59.325226,948,441,1796
59.334902,1012,307,1603
59.344579,1114,157,1473
59.354286,1215,189,1651
59.363962,1369,412,1906
59.373962,1458,733,2071
59.383669,1442,871,2108
59.393346,1367,753,1937
59.403053,1065,599,1621
59.412729,998,348,1039
59.422729,1173,82,330
59.432436,383,-365,101
59.442113,474,-631,-1131
59.451820,2178,-324,-2918
59.461496,2481,37,-2429
59.471496,1978,553,-1331
59.481203,1915,735,-1022
59.490880,1678,266,-525
59.500557,1596,23,-261
59.510264,1792,148,-327
59.520264,2053,237,-474
59.529940,2131,292,-736
59.539647,1799,235,-861
59.549324,1328,-63,-970
59.559031,1139,-336,-1341
59.569031,1123,-486,-1661
59.578735,1324,-188,-1870
59.588473,1969,305,-2327
59.598149,1828,-154,-2234
59.607826,655,-893,-1124
59.617533,262,-800,-449
59.627533,580,-436,-795
59.637209,812,-158,-1522
59.646916,1087,-108,-2409
59.656593,1164,-233,-3102
59.666300,1058,-293,-3232
59.676300,898,-334,-3007
59.685976,715,-149,-2365
59.695683,912,-265,-2348
59.705360,1126,148,-2157
59.715067,823,1339,160
59.725067,808,555,-254
59.734744,1201,-600,-2886
59.744420,1330,-384,-2704
59.754127,1083,-415,-2270
59.763804,673,-313,-2261
59.773804,608,-42,-1879
59.783511,673,-113,-1804
59.793187,526,-295,-1636
59.802894,508,-420,-1549
59.812571,566,-449,-1700
59.822571,580,-409,-1850
59.832247,430,-379,-1816
59.841954,-100,-315,-1716
59.851631,-404,-152,-1890
59.861338,-117,-70,-2252
59.871338,112,-43,-2482
59.881014,-74,37,-2391
59.890721,-304,67,-2123
59.900398,-388,76,-1968
59.910105,-477,94,-1811
59.920105,-583,144,-1640
59.929781,-622,314,-1699
59.939488,-327,264,-1663
59.949165,91,-36,-1556
59.958872,-61,-34,-1749
59.968872,-727,173,-2143
59.978548,-1231,326,-2866
59.988225,-1091,371,-2925
59.997932,-729,394,-2088
60.7609,-508,462,-1699
60.17609,-263,237,-1550
60.27316,-145,12,-1499
60.36992,-320,37,-1666
60.46669,-643,14,-1682
60.56376,-972,-75,-1706
60.66376,-1263,-122,-1822
60.76052,-1175,-56,-2013
60.85759,-822,99,-2229
60.95436,-856,246,-2250
60.105143,-1166,299,-2115
60.115143,-1363,226,-1950
60.124819,-1456,173,-1825
60.134496,-1299,201,-1911
60.144203,-1084,112,-1936
60.153879,-1102,107,-1761
60.163879,-988,633,-2209
60.173586,-893,464,-2290
60.183263,-1145,-463,-1340
60.192970,-1659,405,-1340
60.202646,-2363,1292,-1209
60.212646,-2054,-65,-738
60.222353,-1231,-1090,-775
60.232030,-2436,-261,1117
60.241737,-3709,1346,2258
60.251413,-3009,1748,682
60.261413,-2388,1240,-311
60.271090,-2157,1082,-620
60.280797,-1790,808,-811
60.290474,-1507,533,-641
60.300181,-1286,376,-313
60.310181,-1231,242,285
60.319857,-1222,233,832
60.329564,-1081,251,1058
60.339241,-829,158,1178
60.348948,-577,48,1283
60.358948,-459,235,1337
60.368624,-620,560,1560
60.378301,-1081,740,1928
60.388008,-1491,749,2085
60.397684,-1616,599,2051
60.407684,-1556,455,1983
60.417391,-1266,291,1889
60.427068,-800,71,1894
60.436775,-338,-95,2122
60.446451,96,-258,2303
60.456451,307,-254,2110
60.466158,244,-118,1831
60.475835,262,26,1673
60.485511,362,110,1614
60.495218,217,-172,1865
60.505218,-93,-333,1997
60.514895,-115,-6,1894
60.524602,42,-40,1828
60.534278,-67,-168,1487
60.543955,251,151,1626
60.553955,958,41,2169
60.563662,1026,105,1842
60.573339,862,532,1423
60.583046,776,460,1812
60.592722,573,612,2224
60.602722,655,624,1940
60.612399,924,185,1587
60.622106,951,214,1521
60.631782,828,385,1449
60.641489,764,607,1564
60.651489,830,1151,1656
60.661166,876,1121,1639
60.670873,985,541,1731
60.680549,1124,239,1930
60.690226,932,32,2281
60.700226,707,-15,2439
60.709933,657,185,2351
60.719609,626,239,2324
60.729286,817,294,2210
60.738993,1132,348,2119
60.748993,1226,255,2064
60.758669,1212,266,1840
60.768376,1248,412,1699
60.778053,1160,626,1646
60.787760,955,751,1565
60.797760,921,682,1606
60.807436,989,776,1717
60.817143,1073,746,1423
60.826820,1283,144,685
60.836496,1264,-45,416
60.846496,994,514,896
60.856203,949,799,1492
60.865880,1001,687,1817
60.875587,953,639,1892
60.885264,962,698,1931
60.895264,978,737,1926
60.904971,967,614,1810
60.914647,982,449,1724
60.924324,953,428,1608
60.934031,919,374,1503
60.944031,898,207,1585
60.953707,844,99,1614
60.963414,819,130,1771
60.973091,817,316,2308
60.982798,915,146,2565
60.992798,1117,107,2762
61.2474,978,899,3099
61.12181,564,851,2683
61.21858,524,123,1917
61.31534,683,55,1439
61.41534,653,37,1117
61.51241,767,28,964
61.60918,1335,55,732
61.70625,2028,-93,546
61.80301,2349,-11,649
61.90301,2301,51,582
61.100008,1914,-154,523
61.109685,1537,55,810
61.119392,1603,191,901
61.129068,1808,-115,603
61.139068,1864,-131,196
61.148776,1867,-8,-118
61.158452,1964,89,-222
61.168159,2139,178,-117
61.177836,2262,199,110
61.187836,2303,121,212
61.197512,2130,-181,87
61.207219,1708,-233,-72
61.216896,1483,-159,-156
61.226603,1587,-272,-193
61.236603,1678,-200,-88
61.246279,1658,-140,66
61.255956,1890,53,-90
61.265663,1551,-292,-4
61.275339,451,-1211,492
61.285339,191,-1091,882
61.295046,-170,-1102,58
61.304723,-752,-797,-1775
61.314430,-379,369,-1440
61.324106,464,644,-1711
61.334106,1958,723,-5020
61.343783,2376,119,-5398
61.353490,1087,-513,-2809
61.363166,439,-81,-1470
61.372873,437,64,-1195
61.382873,426,-127,-1604
61.392550,673,-250,-2106
61.402257,873,-238,-2081
61.411933,617,-111,-1986
61.421641,416,-218,-1943
61.431641,569,-506,-1916
61.441317,414,-363,-2059
61.450994,-174,-300,-2282
61.460701,-442,-311,-2190
61.470377,-92,-4,-2047
61.480377,335,-158,-2013
61.490084,241,-183,-1927
61.499761,-272,151,-2129
61.509468,-415,80,-2411
61.519144,-284,-200,-2231
61.529144,-50,-277,-1947
61.538851,567,-243,-2145
61.548528,746,-297,-2375
61.558235,44,-311,-2265
61.567911,-522,-274,-2181
61.577911,-429,-240,-2173
61.587250,-518,-233,-2234
61.597353,-1009,-258,-2273
61.607030,-1070,-170,-2329
61.616737,-1113,-152,-2445
61.626413,-1049,14,-1979
61.636413,-70,451,-1693
61.646120,64,396,-2166
61.655797,-816,23,-2231
61.665474,-931,-88,-2127
61.675181,-759,-61,-2247
61.685181,-716,3,-2182
61.694857,-474,-36,-2068
61.704564,-179,-97,-2061
61.714241,-188,-99,-1997
61.723948,-370,-240,-1786
61.733948,-492,-217,-1799
61.743624,-729,-13,-2134
61.753331,-959,49,-2148
61.763008,-981,19,-1802
61.772684,-772,-134,-1786
61.782684,-616,-263,-1840
61.792391,-709,-283,-1754
61.802068,-765,-331,-1879
61.811775,-700,-372,-1932
61.821451,-659,-413,-1890
61.831451,-561,-418,-1995
61.841158,-425,-352,-2072
61.850835,-333,-359,-2104
61.860542,-299,-367,-2148
61.870218,-372,-297,-2052
61.880218,-379,-238,-1918
61.889925,-324,-220,-1868
61.899602,-365,-292,-1802
61.909309,-338,-388,-1738
61.918985,-275,-461,-1675
61.928985,-293,-492,-1706
61.938662,-284,-472,-1888
61.948369,-340,-449,-2016
61.958046,-379,-392,-2052
61.967753,-142,-304,-2004
61.977753,71,-211,-1965
61.987429,-2,-147,-2029
61.997136,-175,-208,-2048
62.6813,-295,-297,-2072
62.16520,-343,-299,-2106
62.26520,-404,-343,-2075
62.36196,-404,-365,-2109
62.45903,-263,-299,-2059
62.55580,-175,-270,-1963
62.65287,-200,-245,-2022
62.75287,-172,-229,-1986
62.84963,-268,-242,-2077
62.94640,-149,-224,-2023
62.104347,262,-215,-1643
62.114023,-4,-190,-1929
62.124023,-308,-49,-2370
62.133730,-149,91,-2386
62.143407,-143,69,-2375
62.153114,-124,14,-2393
62.162790,-38,37,-2213
62.172790,78,96,-1915
62.182497,26,-93,-2265
62.192174,-250,-497,-2420
62.201881,-308,-543,-1847
62.211558,-197,-252,-1824
62.221558,-124,-42,-2136
62.231265,-140,99,-2081
62.240941,-272,285,-1954
62.250648,-325,498,-1998
62.260325,-249,748,-2095
62.270325,-211,889,-1979
62.280001,-206,801,-1802
62.289708,-99,662,-1881
62.299385,44,546,-1918
62.309092,39,357,-1656
62.319092,-124,323,-1690
62.328768,-222,664,-2072
62.338475,-154,782,-2040
62.348152,-70,740,-1884
62.357859,-163,1110,-1950
62.367859,-359,1278,-1813
62.377535,-384,1157,-1754
62.387242,-240,1105,-1904
62.396919,-195,1083,-1581
62.406595,-258,1112,-1015
62.416595,-175,1190,-1072
62.426302,-63,1539,-1566
62.435979,-175,1912,-1779
62.445686,-358,1840,-1697
62.455362,-436,1583,-1550
62.465362,-417,1473,-1263
62.475069,-333,1464,-981
62.484746,-274,1446,-843
62.494453,-263,1464,-686
62.504130,-317,1617,-579
62.514130,-409,1798,-634
62.523837,-506,1842,-661
62.533513,-704,1989,-659
62.543220,-804,2171,-563
62.552897,-606,1976,-204
62.562897,-454,1817,-115
62.572573,-402,1789,-131
62.582280,-318,1592,335
62.591957,-209,1756,-508
62.601664,-56,2158,-1627
62.611664,-204,2256,-406
62.621340,-575,2178,582
62.631047,-570,1947,244
62.640724,-409,1856,221
62.650400,-454,2042,483
62.660400,-415,1928,605
62.670107,-338,1769,567
62.679784,-367,2008,496
62.689491,-272,1306,967
62.699167,-227,1042,1337
62.709167,-361,2497,489
62.718874,-284,2372,169
62.728551,-140,1458,764
62.738227,-231,1685,958
62.747934,-306,1656,1164
62.757934,-250,1569,1323
62.767611,-197,1692,1253
62.777318,-188,1737,1219
62.786995,-138,1751,1098
62.796702,-124,1660,969
62.806702,-179,1642,955
62.816378,-174,1631,994
62.826085,-361,1455,1042
62.835762,-568,1385,1094
62.845469,-400,1408,1160
62.855469,-206,1264,1246
62.865145,-104,1078,1374
62.874852,0,1049,1539
62.884529,107,951,1819
62.894236,480,817,2117
62.904236,671,937,2105
62.913912,294,1046,1849
62.923589,17,967,1542
62.933296,-34,844,1299
62.942972,-197,757,1289
62.952972,-233,712,1464
62.962679,-42,703,1676
62.972356,99,690,1862
62.982063,57,585,2053
62.991739,-43,407,2240
63.1739,-29,308,2247
63.11446,39,316,2076
63.21123,57,362,1947
63.30830,67,371,1892
63.40506,66,253,1824
63.50506,39,180,1776
63.60214,51,187,1728
63.69890,69,123,1655
63.79597,60,121,1748
63.89274,87,135,1976
63.99274,130,7,2014
63.108981,166,-154,1919
63.118657,207,-192,1930
63.128364,164,-200,1969
63.138041,91,-286,1880
63.148041,242,-192,1826
63.157717,348,-208,1856
63.167424,167,-488,1892
63.177131,155,-604,1876
63.186808,210,-677,1776
63.196808,67,-795,1989
63.206484,117,-972,2031
63.216191,7,-868,1762
63.225868,-600,-533,2244
63.235575,-670,-802,2690
63.245575,-50,-1208,2042
63.255251,187,-1252,1398
63.264958,-36,-1265,1346
63.274635,-156,-1327,1473
63.284342,-52,-1700,1662
63.294342,62,-1948,1523
63.304018,98,-1616,1165
63.313725,108,-1318,1162
63.323402,91,-1315,1235
63.333109,83,-1352,987
63.343109,-17,-1395,803
63.352786,-163,-1427,837
63.362493,-145,-1516,815
63.372169,-200,-1515,862
63.381876,-245,-1372,917
63.391876,-156,-1509,887
63.401553,-167,-1843,805
63.411260,-209,-1856,533
63.420936,-209,-1481,549
63.430643,-350,-2168,883
63.440643,-499,-3014,596
63.450320,-279,-2232,199
63.460027,-206,-1884,257
63.469734,-404,-2190,128
63.479410,-495,-1993,-175
63.489410,-492,-1968,-245
63.499087,-336,-2223,-56
63.508794,-254,-2363,98
63.518470,-302,-2313,67
63.528177,-340,-2223,-13
63.538177,-404,-2159,-90
63.547854,-483,-2027,-415
63.557561,-511,-1938,-731
63.567237,-443,-1970,-700
63.576576,-304,-1972,-702
63.586680,-149,-1948,-775
63.596680,-150,-1948,-779
63.606387,-211,-1873,-902
63.616063,-249,-1695,-690
63.625770,-572,-1666,-213
63.635447,-695,-1759,-388
63.645447,-406,-1681,-750
63.655154,-313,-1602,-841
63.664830,-295,-1566,-1090
63.674537,-233,-1538,-1208
63.684214,-174,-1650,-1318
63.694214,58,-1641,-1911
63.703921,7,-1399,-2373
63.713597,-358,-1229,-2193
63.723304,-92,-1402,-1747
63.732981,330,-1493,-1570
63.742981,-24,-1275,-1434
63.752688,-358,-1306,-1152
63.762364,-454,-1450,-1245
63.772071,-622,-1347,-1622
63.781748,-479,-1154,-1895
63.791748,-247,-1038,-1991
63.801455,-327,-965,-1916
63.811162,-304,-866,-1904
63.820839,-72,-863,-1995
63.830546,-227,-834,-1897
63.840546,-220,-693,-1697
63.850222,60,-704,-1802
63.859929,-68,-695,-1947
63.869606,-174,-602,-1840
63.879313,-156,-559,-1966
63.889313,-177,-461,-2150
63.899020,-168,-406,-2270
63.908696,-284,-488,-2645
63.918403,-365,-461,-2788
63.928080,-308,-106,-2538
63.938080,-247,135,-2200
63.947787,-195,139,-2034
63.957463,-2,-67,-2113
63.967170,358,-361,-1963
63.976847,285,257,-1747
63.986847,-152,890,-1766
63.996523,-6,446,-1870
64.6230,249,516,-2006
64.15907,-129,932,-1559
64.25614,-275,564,-890
64.35614,3,521,-1041
64.45290,-92,808,-1199
64.54997,-324,648,-961
64.64704,266,376,60
64.74381,762,266,728
64.84381,-747,1051,-3095
64.94088,-1895,2244,-5659
64.103765,-1011,1933,-2254
64.113472,-765,1148,-777
64.123148,-936,1240,-1845
64.133148,-575,1237,-1766
64.142825,-520,1094,-1600
64.152532,-559,1253,-1609
64.162208,-568,1339,-1595
64.171915,-599,1230,-1556
64.181915,-500,1060,-1599
64.191592,-325,915,-1572
64.201299,-195,744,-1425
64.210975,-320,703,-1666
64.220682,-584,969,-1847
64.230682,-661,1151,-1843
64.240359,-652,1130,-2029
64.250066,-656,1023,-1977
64.259742,-606,899,-1782
64.269449,-602,858,-1756
64.279449,-620,817,-1757
64.289126,-574,714,-1763
64.298833,-520,658,-1793
64.308509,-468,689,-1797
64.318216,-406,723,-1843
64.328216,-375,790,-1898
64.337893,-338,699,-1857
64.347600,-338,535,-1965
64.357276,-463,698,-2059
64.366984,-499,723,-1857
64.376984,-425,516,-1718
64.386660,-402,483,-1816
64.396367,-343,508,-1957
64.406044,-272,530,-1981
64.415751,-308,557,-1931
64.425751,-402,544,-1898
64.435427,-417,505,-1877
64.445134,-361,508,-1897
64.454811,-345,567,-1979
64.464487,-283,582,-2050
64.474487,-202,537,-2013
64.484194,-211,482,-1936
64.513254,-300,324,-1836
64.523254,-195,246,-1834
64.532961,-118,267,-1881
64.542638,-195,371,-1940
64.552345,-349,394,-2000
64.562021,-367,353,-2054
64.572021,-309,378,-2043
64.581360,-279,391,-2022
64.591464,-274,371,-2015
64.601140,-333,341,-1997
64.610847,-363,308,-2002
64.620524,-345,310,-2022
64.630524,-311,351,-2040
64.640231,-275,462,-2095
64.649907,-243,483,-2113
64.659584,-209,373,-2065
64.669291,-202,367,-2075
64.679291,-229,460,-2086
64.688998,-254,499,-2013
64.698674,-245,485,-2018
64.708381,-202,414,-2040
64.718058,-134,326,-1940
64.728058,-83,303,-1866
64.737734,-86,301,-1850
64.747441,-120,289,-1832
64.757148,-168,324,-1831
64.766825,-217,337,-1838
64.776825,-243,333,-1881
64.786501,-279,453,-1934
64.796208,-275,446,-1973
64.805915,-224,398,-2057
64.815592,-243,624,-2120
64.825592,-256,689,-2072
64.835299,-172,551,-2045
64.844975,-92,526,-2113
64.854683,-106,505,-2081
64.864359,-208,496,-2041
64.874359,-288,499,-2082
64.884036,-286,460,-2056
64.893743,-284,457,-2057
64.903419,-325,487,-2166
64.913126,-338,523,-2277
64.923126,-347,566,-2275
64.932803,-388,523,-2191
64.942510,-406,474,-2113
64.952186,-461,571,-2020
64.961893,-488,632,-1932
64.971893,-406,574,-1806
64.981570,-290,482,-1738
64.991277,-195,369,-1863
65.953,-250,382,-1927
65.10660,-422,505,-1809
65.20660,-495,608,-1815
65.30337,-477,687,-1979
65.40044,-450,692,-2031
65.49720,-379,615,-2023
65.59427,-252,530,-1998
65.69427,-167,548,-1911
65.79104,-233,649,-1959
65.88811,-422,642,-1977
65.98487,-543,499,-1863
65.108194,-511,405,-1824
65.118194,-408,371,-1856
65.127871,-279,296,-2047
65.137578,-88,273,-2079
65.147255,80,182,-1818
65.156962,126,35,-1707
65.166962,239,135,-1600
65.176638,319,337,-1541
65.186345,176,439,-2179
65.196022,121,542,-2557
65.205729,76,696,-2115
65.215729,-138,657,-2015
65.225405,-138,478,-2065
65.235112,55,310,-1922
65.244789,178,128,-1886
65.254496,267,83,-1834
65.264496,214,171,-1797
65.274172,189,292,-1766
65.283879,369,432,-1715
65.293556,487,505,-1804
65.303263,460,526,-1975
65.313263,432,460,-1988
65.322939,385,391,-1832
65.332646,387,508,-1800
65.342323,453,573,-1913
65.351999,349,421,-1884
65.361999,182,266,-1759
65.371706,155,244,-1813
65.381383,185,283,-1972
65.391090,228,292,-1963
65.400766,274,246,-1895
65.410766,307,91,-1959
65.420474,330,-34,-2016
65.430150,323,-6,-1995
65.439857,308,64,-1993
65.449534,405,87,-2041
65.459534,546,53,-2198
65.469241,574,117,-2359
65.478917,389,410,-2270
65.488624,76,560,-2109
65.498301,-90,341,-2200
65.508301,-86,176,-2298
65.518008,-127,166,-2140
65.527684,-150,99,-2073
65.537391,-88,117,-2136
65.547068,-34,171,-2023
65.557068,23,182,-1907
65.566775,46,296,-1882
65.576327,55,424,-1845
65.586217,44,421,-1848
65.595893,24,387,-1911
65.605600,30,419,-1988
65.615600,3,355,-1977
65.625277,-38,283,-1986
65.634984,8,223,-2097
65.644661,92,369,-1891
65.654368,57,819,-1568
65.664368,28,887,-1720
65.674044,-43,885,-1929
65.683751,-65,839,-1906
65.693428,119,441,-2047
65.703135,162,389,-2270
65.713135,85,478,-2295
65.722811,121,319,-2345
65.732518,164,208,-2497
65.742195,132,192,-2473
65.751902,78,180,-2300
65.761902,64,233,-2204
65.771578,53,298,-2231
65.781285,-97,199,-2348
65.790962,-206,-36,-2365
65.800638,-38,-256,-2222
65.810638,148,-375,-2204
65.820345,101,-408,-2132
65.830052,-43,-363,-1729
65.839729,-45,-236,-1406
65.849405,-77,-150,-1470
65.859405,-320,35,-1397
65.869112,-567,374,-1145
65.878789,-1022,428,-1341
65.888496,-1682,480,-1282
65.898172,-1977,524,-1084
65.908172,-2077,-2,-1659
65.917880,-2261,-106,-1702
65.927556,-2184,421,-1432
65.937263,-2057,407,-1959
65.946940,-2131,103,-2172
65.956940,-1941,53,-1900
65.966647,-1443,128,-1836
65.976323,-959,33,-1872
65.986030,-641,-218,-1882
65.995707,-449,-331,-2045
66.5707,-297,-504,-2118
66.15414,-243,-849,-1993
66.25090,-313,-1106,-2107
66.34797,-434,-1199,-2141
66.44474,-493,-1218,-1920
66.54474,-599,-1215,-1861
66.64181,-899,-1181,-1615
66.73888,-993,-1204,-1158
66.83564,-758,-1188,-1241
66.93271,-718,-1047,-1511
66.103271,-884,-913,-1513
66.112948,-1022,-836,-1579
66.122655,-1109,-1049,-1729
66.132331,-1211,-1118,-1963
66.142038,-1529,-750,-2047
66.152038,-1848,-611,-1827
66.161715,-1893,-590,-1663
66.171422,-1875,-256,-1747
66.181099,-1913,7,-1904
66.190806,-1870,8,-1706
66.200806,-1672,41,-1518
66.210482,-1399,148,-1770
66.220189,-1143,387,-1699
66.229866,-965,523,-1286
66.239573,-720,312,-1043
66.249573,-424,-15,-895
66.259249,-306,-297,-1081
66.268956,-193,-161,-1650
66.278633,53,185,-2082
66.288340,289,158,-1970
66.298340,253,176,-1938
66.308016,39,87,-2045
66.317723,-50,-599,-1832
66.327400,-281,-954,-2209
66.337107,-318,-791,-2570
66.347107,126,-609,-2216
66.356783,241,-361,-2240
66.366490,69,-349,-2509
66.376167,76,-558,-2470
66.385843,10,-681,-2375
66.395843,-170,-772,-2350
66.405550,-400,-859,-2291
66.415227,-599,-847,-2229
66.424934,-531,-711,-2141
66.434610,-300,-518,-1913
66.444610,-165,-408,-1684
66.454318,-158,-527,-1670
66.463994,-272,-597,-1609
66.473701,-322,-445,-1443
66.483378,-13,-402,-1397
66.493378,319,-283,-1199
66.503085,91,14,-784
66.512761,-636,33,-442
66.522438,-1307,60,-475
66.532145,-1734,316,-1191
66.542145,-2172,723,-1656
66.551821,-2631,1464,-1474
66.561528,-2773,1967,-1834
66.571205,-2406,1989,-2731
66.580912,-1811,1715,-3318
66.590912,-1231,1269,-3054
66.600588,-806,905,-2352
66.610295,-749,407,-2370
66.619972,-947,-20,-2891
66.629679,-1306,-18,-2879
66.639679,-1654,67,-2568
66.649355,-1674,214,-2468
66.659062,-1677,224,-2179
66.668739,-1727,-309,-1961
66.678415,-1543,-115,-2175
66.688415,-1847,1005,-2407
66.698122,-2602,953,-2307
66.707799,-2781,-154,-1948
66.717506,-2282,-963,-1513
66.727183,-1332,-1545,-950
66.737183,-109,-1788,-465
66.746890,801,-1595,-322
66.756566,919,-1325,-429
66.766273,630,-1197,-686
66.775950,655,-1077,-1643
66.785950,739,-1000,-2429
66.795657,396,-1402,-1940
66.805333,44,-1813,-1763
66.815040,66,-1724,-2091
66.824717,276,-1345,-1947
66.834717,414,-936,-1854
66.844424,428,-741,-1893
66.854100,403,-659,-1745
66.863807,367,-365,-1699
66.873484,362,5,-1841
66.883484,360,217,-1907
66.893191,257,394,-2023
66.902867,407,524,-1890
66.912544,673,574,-1815
66.922251,471,521,-2307
66.932251,289,403,-2307
66.941927,316,566,-2063
66.951634,194,798,-2259
66.961311,242,555,-2338
66.971018,532,98,-2318
66.981018,721,-165,-2286
66.990694,732,-340,-2179
67.401,703,-558,-2098
67.10078,687,-695,-2038
67.19785,603,-590,-2015
67.29785,576,-500,-1963
67.39462,633,-584,-1854
67.49169,617,-467,-1827
67.58845,512,-100,-1911
67.68552,380,135,-2029
67.78552,353,189,-1929
67.88229,285,87,-1781
67.97936,92,-225,-1863
67.107612,48,-318,-1772
67.117319,32,-165,-1593
67.127319,-42,-177,-1531
67.136996,-54,-117,-1547
67.146672,-83,174,-1777
67.156379,-113,471,-1915
67.166056,-170,633,-2036
67.176056,-197,632,-2245
67.185763,-163,601,-2232
67.195439,-206,564,-2182
67.205146,-300,460,-2157
67.214823,-400,357,-2136
67.224823,-495,342,-2195
67.234530,-581,337,-2163
67.244206,-649,314,-2131
67.253883,-636,382,-2216
67.263590,-379,471,-2216
67.273590,-145,410,-2125
67.283266,-350,366,-1922
67.292974,-393,476,-1834
67.302650,8,408,-2106
67.312357,194,296,-2195
67.322357,153,408,-2091
67.332034,130,416,-2091
67.341741,-70,224,-1973
67.351417,-265,71,-1775
67.361124,-124,-131,-1611
67.371124,16,-49,-1620
67.380801,-133,569,-1898
67.390508,-349,908,-2168
67.400184,-406,814,-2177
67.409891,-343,669,-2007
67.419891,-308,483,-1959
67.429568,-259,357,-1941
67.439275,-192,223,-1818
67.448951,-222,124,-1804
67.458628,-347,283,-1734
67.468628,-427,399,-1793
67.478335,-420,230,-2152
67.488011,-456,162,-2322
67.497718,-531,226,-2323
67.507395,-540,189,-2284
67.517395,-506,182,-2266
67.527102,-477,176,-2345
67.536778,-388,16,-2243
67.546485,-308,-88,-2029
67.556162,-402,-49,-1952
67.566162,-522,-52,-1915
67.575869,-536,-65,-1888
67.585546,-483,-134,-1895
67.595253,-393,-279,-1893
67.604929,-390,-286,-1822
67.614929,-474,-170,-1857
67.624636,-509,-113,-2115
67.634313,-520,-115,-2209
67.643989,-509,-117,-2098
67.653696,-461,-150,-2034
67.663696,-454,-170,-2009
67.673373,-470,-125,-1990
67.683080,-517,-70,-1968
67.692756,-568,-31,-2031
67.702433,-570,-129,-2041
67.712433,-586,-243,-1916
67.722140,-629,-158,-1922
67.731816,-606,-118,-1938
67.741523,-552,-186,-1870
67.751200,-533,-159,-1879
67.761200,-547,-86,-1840
67.770876,-559,-84,-1765
67.780583,-470,-145,-1884
67.790260,-352,-150,-1993
67.799967,-342,-65,-1936
67.809967,-349,-34,-2020
67.819643,-270,-92,-2022
67.829320,-163,-113,-1852
67.839027,-261,-136,-1891
67.848703,-377,-206,-1893
67.858703,-286,-183,-1795
67.868411,-329,-106,-1945
67.878087,-463,-127,-2079
67.887764,-511,-131,-2004
67.897471,-543,-102,-1970
67.907471,-543,-131,-1984
67.917147,-554,-122,-1982
67.926854,-620,-79,-2023
67.936531,-593,-120,-2102
67.946207,-436,-199,-2125
67.956207,-342,-186,-2115
67.965914,-361,-124,-2084
67.975591,-381,-120,-2082
67.985298,-352,-145,-2043
67.994974,-352,-122,-1868
68.4974,-408,-161,-1918
68.14681,-443,-277,-2023
68.24358,-463,-383,-1959
68.34034,-495,-520,-2047
68.43741,-472,-561,-2029
68.53741,-404,-506,-1857
68.63418,-320,-513,-1866
68.73125,-284,-517,-1918
68.82801,-447,-461,-1872
68.92508,-508,-465,-1865
68.102508,-361,-459,-1990
68.112185,-333,-547,-2122
68.121892,-327,-765,-2025
68.131568,-392,-649,-1818
68.141245,-459,-608,-1859
68.151245,-363,-877,-1948
68.160952,-383,-754,-1916
68.170629,-483,-645,-1957
68.180336,-443,-843,-1988
68.190012,-390,-845,-1940
68.200012,-397,-774,-1941
68.209719,-406,-829,-1975
68.219396,-406,-856,-1948
68.229072,-429,-816,-1898
68.238779,-427,-915,-1882
68.248779,-359,-979,-1859
68.258456,-333,-850,-1824
68.268163,-379,-836,-1829
68.277839,-397,-886,-1843
68.287546,-413,-831,-1831
68.297546,-442,-838,-1770
68.307223,-436,-888,-1729
68.316899,-415,-900,-1750
68.326606,-392,-934,-1741
68.336283,-370,-913,-1781
68.346283,-370,-850,-1873
68.385050,-308,-879,-1757
68.395050,-242,-838,-1715
68.404726,-238,-718,-1747
68.414433,-331,-709,-1772
68.424110,-408,-899,-1732
68.433817,-452,-1029,-1688
68.443817,-467,-920,-1729
68.453494,-456,-797,-1802
68.463201,-409,-775,-1872
68.472877,-377,-797,-2015
68.482584,-467,-808,-2156
68.492584,-522,-831,-2120
68.502261,-443,-847,-1957
68.511968,-379,-756,-1795
68.521644,-350,-741,-1724
68.531351,-322,-893,-1784
68.541351,-340,-897,-1836
68.551028,-370,-784,-1815
68.560735,-390,-804,-1824
68.570411,-445,-731,-1875
68.580118,-497,-659,-1906
68.590118,-570,-668,-1866
68.599795,-600,-604,-1923
68.609471,-506,-672,-2127
68.619178,-418,-697,-2079
68.628855,-263,-829,-1857
68.638855,-99,-1159,-1832
68.648562,-131,-997,-1848
68.658238,-206,-704,-1791
68.667945,-281,-813,-1699
68.677622,-367,-875,-1641
68.687622,-392,-840,-1741
68.697329,-393,-950,-1890
68.707006,-395,-1043,-1986
68.716713,-383,-981,-2048
68.726389,-342,-900,-2006
68.736389,-265,-859,-1815
68.746096,-143,-856,-1607
68.755773,-22,-993,-1520
68.765480,48,-1131,-1711
68.775156,71,-1170,-2272
68.785156,46,-1229,-2575
68.794863,-100,-1216,-2277
68.804540,-345,-1077,-2052
68.814247,-370,-972,-2029
68.823923,-61,-1086,-1777
68.833923,312,-1232,-1511
68.843630,562,-1174,-1441
68.853307,639,-1038,-1397
68.863014,626,-941,-1340
68.872690,769,-1029,-1245
68.882690,944,-1227,-1265
68.892397,871,-1386,-1516
68.902074,858,-1609,-1659
68.911781,949,-1763,-1445
68.921457,874,-1581,-1177
68.931457,799,-1218,-1033
68.941164,914,-1036,-813
68.950841,1067,-1070,-666
68.960517,1165,-1188,-708
68.970224,1273,-1195,-736
68.980224,1351,-1084,-863
68.989901,1531,-1300,-1045
68.999608,1664,-1634,-1038
69.9285,1478,-1584,-999
69.18992,1226,-1631,-886
69.28992,1194,-1724,-661
69.38668,1405,-1340,-568
69.48375,1605,-981,-504
69.58052,1648,-918,-424
69.67759,1715,-822,-359
69.77759,1839,-836,-306
69.87435,1733,-1170,-479
69.97142,1631,-1402,-752
69.106819,1869,-1313,-733
69.116526,1899,-1056,-493
69.126526,1765,-711,-367
69.136202,1871,-502,-338
69.145909,1899,-452,-400
69.155586,1897,-424,-506
69.165262,1965,-399,-461
69.175262,1901,-392,-415
69.184969,1901,-404,-458
69.194646,2012,-424,-481
69.204353,2030,-452,-509
69.214029,1980,-483,-508
69.224029,1930,-527,-515
69.233736,1996,-577,-618
69.243413,2049,-650,-711
69.253120,1958,-688,-747
69.262797,1910,-608,-700
69.272797,1910,-456,-558
69.282473,1835,-240,-413
69.292180,1651,-118,-286
69.301857,1603,-129,-209
69.311564,1696,-84,-102
69.321564,1739,-8,32
69.331240,1917,85,-13
69.340947,2115,166,-93
69.350624,2180,178,-170
69.360331,2324,96,-467
69.370331,2399,-102,-756
69.380007,2217,-184,-722
69.389714,1990,-86,-468
69.399391,1890,12,-229
69.409098,1953,35,-84
69.419098,2096,24,14
69.428774,2172,112,-45
69.438481,2180,235,-184
69.448158,2197,278,-179
69.457865,2285,280,-204
69.467865,2335,191,-265
69.477541,2235,92,-286
69.487248,2139,130,-545
69.496925,2094,280,-936
69.506632,1958,278,-904
69.516632,1776,98,-783
69.526308,1735,289,-831
69.536016,1815,623,-45
69.545692,1956,592,683
69.555399,1990,612,155
69.565399,1903,860,-233
69.575076,2015,976,-236
69.584783,2174,705,-511
69.594459,2180,546,-402
69.604166,2049,612,-192
69.614166,1903,414,-399
69.623843,2094,248,-352
69.633550,2415,273,8
69.643226,2358,357,339
69.652933,2001,662,314
69.662933,1860,896,-29
69.672610,1633,1019,-202
69.682317,1023,1394,-418
69.691993,1199,1481,-527
69.701700,1953,1089,-356
69.711700,2130,740,-413
69.721377,2290,564,-324
69.731084,2487,480,67
69.740760,2319,432,432
69.750437,2417,351,517
69.760437,2631,135,242
69.770144,2365,-22,89
69.779820,2256,-54,-183
69.789527,2314,-97,-399
69.799204,1942,-2,67
69.809204,1648,110,505
69.818911,1631,264,548
69.828588,1624,387,662
69.838295,1564,453,946
69.847971,1289,753,1299
69.857971,1080,1067,1333
69.867648,1244,1115,1203
69.877355,1510,803,1524
69.887062,1669,424,1828
69.896738,1758,167,1876
69.906738,1749,-56,1776
69.916445,1612,-59,1430
69.926122,1301,128,1426
69.935798,1108,403,1603
69.945505,1233,446,1840
69.955505,932,451,2322
69.965182,628,803,1999
69.974889,1239,744,1283
69.984565,1847,274,1015
69.994272,2122,-159,996
70.4272,2305,-540,1267
70.13949,2005,-588,1321
70.23656,1583,-438,1201
70.33332,1515,-320,1246
70.43039,1126,-268,1512
70.53039,274,-261,1656
70.62716,-40,-359,1173
70.72392,51,-479,1037
70.82099,-15,-288,1462
70.91776,82,-215,1496
70.101776,341,-438,1330
70.111483,719,-529,1469
70.121190,1614,-572,1735
70.130867,2456,-631,1733
70.140543,2265,-727,1642
70.150543,1614,-741,1514
70.160250,1258,-679,1248
70.169927,1033,-818,1219
70.179634,912,-933,1339
70.189310,776,-654,1157
70.199310,512,51,932
70.209017,396,578,926
70.218694,541,405,1055
70.228401,778,-102,1390
70.238077,989,-492,1637
70.248077,1121,-916,1674
70.257784,1373,-1349,1635
70.267461,1564,-1377,1221
70.277168,1212,-1349,778
70.286844,776,-1627,855
70.296844,892,-2009,960
70.306521,1162,-2295,1008
70.316228,932,-2136,1123
70.325904,630,-1759,857
70.335611,673,-1700,628
70.345611,819,-1806,737
70.355288,962,-1923,796
70.364964,926,-2047,771
70.374672,826,-2050,512
70.384379,823,-2029,49
70.394379,640,-2057,-204
70.404055,491,-2061,-374
70.413762,558,-2034,-502
70.423439,501,-1961,-220
70.433146,385,-1943,146
70.443146,292,-1736,-8
70.452822,258,-1445,-284
70.462529,516,-2291,-125
70.472206,655,-2829,-270
70.481913,348,-1502,-747
70.491913,164,-861,-415
70.501589,237,-1740,87
70.511296,221,-1859,351
70.520973,-204,-709,503
70.530680,-743,-595,-468
70.540680,-849,-893,-1106
70.550356,-1390,-911,-1756
70.560063,-1765,-3405,-4018
70.569740,-1420,-4779,-4141
70.579447,-1434,-2707,-1691
70.589447,-804,-1790,-652
70.599123,-63,-1957,-872
70.608830,-495,-1532,-859
70.618537,-913,-1397,-895
70.628214,-954,-1506,-943
70.638214,-949,-1524,-872
70.647921,-868,-1574,-868
70.657598,-906,-1627,-809
70.667305,-1020,-1656,-659
70.676981,-1075,-1732,-716
70.686981,-1093,-1884,-870
70.696688,-949,-1988,-741
70.706365,-816,-1950,-572
70.716072,-870,-1922,-624
70.725748,-913,-2016,-643
70.735748,-979,-2095,-533
70.745455,-1031,-1950,-513
70.755132,-1081,-1948,-511
70.764839,-1124,-2141,-320
70.774515,-918,-1881,-65
70.784515,-908,-1565,-34
70.794222,-1325,-1791,-409
70.803899,-1502,-1856,-883
70.813606,-1300,-1518,-1043
70.823282,-1124,-1413,-1013
70.833282,-1072,-1584,-915
70.842989,-790,-1554,-559
70.852666,-499,-1197,-322
70.862373,-845,-1386,-584
70.872049,-1395,-1890,-663
70.882049,-1797,-1984,-540
70.891756,-2011,-2173,-650
70.901433,-1675,-2166,-631
70.911140,-1254,-1716,-331
70.920817,-1090,-1452,-83
70.930817,-988,-1499,-522
70.940524,-1045,-1374,-1081
70.950200,-947,-1302,-874
70.959907,-738,-1432,-915
70.969584,-806,-1165,-1465
70.979584,-763,-883,-1622
70.989291,-515,-777,-1613
70.998967,-454,-340,-1766
71.8674,-650,107,-1782
71.18351,-824,69,-1525
71.28351,-788,-4,-1431
71.38058,-797,117,-1611
71.47765,-866,87,-1624
71.57441,-709,0,-1686
71.67148,-577,24,-1868
71.77148,-756,267,-1966
71.86825,-883,128,-1922
71.96532,-818,-184,-1872
71.106208,-781,128,-2225
71.115915,-643,-34,-2539
71.125915,-436,-454,-2257
71.135592,-436,14,-1638
71.145299,-561,607,-1406
71.154975,-672,694,-1574
71.164683,-747,576,-1586
71.174683,-683,303,-1736
71.184359,-522,276,-2222
71.194066,-484,555,-2377
71.203773,-502,541,-2190
71.213450,-584,498,-2038
71.223450,-775,448,-1893
71.233157,-879,330,-1749
71.242833,-952,405,-1616
71.252540,-959,492,-1707
71.262247,-863,505,-1827
71.272247,-840,512,-1779
71.281924,-847,601,-1779
71.291631,-874,699,-1799
71.301307,-911,389,-1856
71.311014,-963,144,-1840
71.321014,-1054,358,-1670
71.330691,-1020,319,-1711
71.340398,-1047,146,-1852
71.350074,-1231,262,-1802
71.359781,-1286,285,-1681
71.369781,-1282,248,-1531
71.379488,-1297,333,-1359
71.389165,-1247,323,-1304
71.398872,-1218,246,-1424
71.408548,-1238,207,-1652
71.418548,-1220,169,-1790
71.428256,-1220,191,-1706
71.437932,-1231,241,-1624
71.447639,-1149,226,-1654
71.457316,-1118,223,-1665
71.467316,-1184,262,-1602
71.477023,-1183,269,-1563
71.486699,-1152,228,-1541
71.496406,-1224,251,-1482
71.506113,-1238,242,-1650
71.516113,-1065,-4,-1952
71.525790,-922,-206,-1984
71.535497,-981,-70,-1834
71.545173,-1227,258,-1559
71.554850,-1497,555,-1202
71.564850,-1570,635,-1134
71.574557,-1465,492,-1390
71.584264,-1415,210,-1493
71.593940,-1475,78,-1365
71.603647,-1520,160,-1257
71.613647,-1568,183,-1247
71.623324,-1561,192,-1345
71.633031,-1468,212,-1440
71.642707,-1472,249,-1402
71.652414,-1518,269,-1311
71.662414,-1549,257,-1266
71.672091,-1663,303,-1140
71.681798,-1700,249,-993
71.691474,-1570,162,-1045
71.701182,-1565,176,-1170
71.711182,-1656,201,-1190
71.720858,-1577,182,-1218
71.730565,-1670,66,-1397
71.740272,-2004,-79,-1361
71.749949,-1966,-304,-1093
71.759949,-1711,-552,-1131
71.769656,-1691,-492,-1227
71.779332,-1640,-368,-1181
71.789039,-1491,-340,-1261
71.798716,-1493,-175,-1327
71.808716,-1591,-170,-1263
71.818423,-1670,-511,-1213
71.828099,-1640,-706,-1266
71.837806,-1565,-622,-1268
71.847483,-1547,-592,-1172
71.857483,-1515,-599,-1138
71.867190,-1506,-609,-1131
71.876897,-1524,-677,-1120
71.886573,-1538,-713,-1134
71.896280,-1574,-677,-1102
71.906280,-1597,-654,-1018
71.915957,-1609,-640,-968
71.935340,-1672,-567,-1068
71.945047,-1620,-565,-1165
71.955047,-1613,-561,-1224
71.964724,-1652,-488,-1297
71.974431,-1565,-433,-1343
71.984108,-1493,-488,-1325
71.993815,-1518,-477,-1350
72.3815,-1472,-388,-1338
72.13491,-1488,-352,-1227
72.23198,-1566,-308,-1209
72.32875,-1559,-258,-1206
72.42582,-1552,-188,-1177
72.52582,-1463,-74,-1249
72.62258,-1332,0,-1354
72.71965,-1406,-22,-1479
72.81642,-1565,-109,-1631
72.91349,-1561,-199,-1713
72.101349,-1466,-209,-1636
72.111056,-1424,-125,-1472
72.120732,-1404,-65,-1393
72.130439,-1449,-24,-1352
72.140116,-1513,51,-1252
72.150116,-1499,121,-1222
72.159823,-1454,189,-1325
72.169499,-1402,208,-1459
72.179206,-1407,162,-1566
72.188883,-1465,133,-1595
72.198883,-1484,112,-1524
72.208590,-1465,94,-1432
72.218266,-1436,99,-1340
72.227974,-1440,133,-1290
72.237681,-1434,157,-1350
72.247681,-1434,128,-1479
72.257357,-1475,80,-1534
72.267064,-1481,69,-1481
72.276741,-1474,107,-1407
72.286448,-1486,124,-1368
72.296448,-1481,105,-1391
72.306155,-1457,121,-1443
72.315831,-1441,108,-1452
72.325538,-1479,51,-1450
72.335215,-1493,69,-1450
72.374305,-1463,49,-1341
72.383982,-1463,19,-1341
72.393982,-1450,19,-1327
72.403689,-1461,17,-1324
72.413396,-1563,17,-1391
72.423072,-1543,28,-1377
72.432779,-1391,-11,-1325
72.442779,-1432,-31,-1338
72.452456,-1525,17,-1345
72.462163,-1527,10,-1397
72.471839,-1540,-9,-1418
72.481547,-1547,-2,-1347
72.491547,-1479,-13,-1327
72.501223,-1465,-36,-1384
72.510930,-1609,-50,-1418
72.520607,-1575,-34,-1338
72.530314,-1468,-74,-1288
72.540314,-1515,-138,-1307
72.549990,-1491,-117,-1327
72.559697,-1481,-115,-1406
72.569374,-1559,-143,-1447
72.579081,-1600,-124,-1377
72.589081,-1582,-134,-1297
72.598788,-1559,-183,-1250
72.608464,-1568,-150,-1245
72.618171,-1574,-170,-1350
72.627848,-1607,-263,-1406
72.637848,-1645,-250,-1322
72.647555,-1620,-258,-1249
72.657231,-1611,-265,-1188
72.666938,-1495,-270,-1216
72.676615,-1422,-311,-1204
72.686615,-1654,-259,-1074
72.696322,-1759,-290,-1168
72.706029,-1670,-433,-1338
72.715705,-1706,-493,-1309
72.725412,-1622,-517,-1320
72.735412,-1432,-524,-1288
72.745089,-1506,-477,-1111
72.754796,-1613,-431,-1102
72.764473,-1581,-463,-1184
72.774180,-1568,-581,-1204
72.784180,-1572,-659,-1181
72.793856,-1627,-665,-1138
72.803563,-1652,-722,-1147
72.813240,-1624,-779,-1061
72.822947,-1650,-759,-1013
72.832947,-1654,-743,-1095
72.842654,-1649,-727,-1034
72.852330,-1693,-704,-959
72.862037,-1677,-688,-995
72.881714,-1534,-736,-1077
72.891421,-1538,-770,-1093
72.901097,-1597,-743,-1031
72.910804,-1609,-752,-1041
72.920481,-1606,-816,-1066
72.930481,-1684,-831,-1020
72.940188,-1700,-825,-993
72.949864,-1606,-802,-990
72.959571,-1607,-750,-929
72.969248,-1661,-786,-861
72.988955,-1657,-756,-1004
72.998631,-1665,-822,-981
73.8339,-1600,-891,-974
73.18015,-1588,-904,-991
73.28015,-1616,-958,-968
73.37722,-1647,-945,-858
73.47399,-1656,-866,-633
73.57106,-1600,-904,-483
73.66782,-1649,-1058,-495
73.76782,-1815,-1188,-579
73.86489,-1861,-1243,-613
73.96166,-1816,-1241,-568
73.105873,-1768,-1141,-561
73.115580,-1643,-1120,-542
73.125580,-1559,-1243,-440
73.135256,-1577,-1150,-293
73.144963,-1629,-1072,-195
73.154640,-1711,-1174,-206
73.164347,-1734,-1124,-179
73.174347,-1718,-1081,-111
73.184023,-1691,-1081,-95
73.193730,-1665,-1049,-109
73.203407,-1706,-1111,-145
73.213114,-1729,-1208,-159
73.223114,-1718,-1202,-161
73.232790,-1720,-1149,-199
73.242497,-1725,-1143,-236
73.271881,-1588,-1116,-199
73.281558,-1607,-1168,-177
73.291265,-1620,-1115,-150
73.300941,-1591,-1125,-270
73.310648,-1500,-1145,-263
73.320648,-1557,-1143,-159
73.330325,-1727,-1238,-163
73.340032,-1713,-1234,-149
73.349708,-1657,-1141,-158
73.359415,-1724,-1161,-140
73.369415,-1807,-1118,16
73.379092,-1806,-997,164
73.388799,-1770,-1068,191
73.398475,-1797,-1165,66
73.408182,-1716,-1150,-34
73.418182,-1654,-1199,24
73.427859,-1816,-1238,21
73.437566,-1866,-1208,-15
73.447242,-1799,-1191,1
73.456949,-1786,-1215,-84
73.466949,-1761,-1261,-122
73.476626,-1852,-1147,-8
73.486333,-1982,-916,66
73.496009,-1815,-1024,173
73.505716,-1661,-1166,258
73.515716,-1716,-1011,160
73.525393,-1693,-1063,173
73.535100,-1791,-1143,185
73.544776,-1822,-983,-18
73.554484,-1695,-1013,-38
73.564484,-1713,-1070,62
73.574160,-1727,-922,3
73.583867,-1688,-859,-18
73.593544,-1656,-865,26
73.603251,-1682,-781,-13
73.613251,-1845,-525,-174
73.622958,-1806,-292,-215
73.632634,-1304,-679,-125
73.642341,-977,-58,-856
73.652018,-972,819,-681
73.662018,-1681,-1318,1217
73.671725,-2879,-2250,460
73.681401,-3125,-1018,-972
73.691108,-2738,-1338,187
73.700785,-1893,-315,-147
73.710785,-1475,1069,-952
73.720492,-1961,339,-375
73.730168,-2023,-34,-572
73.739875,-1911,-102,-533
73.749552,-1909,-215,-206
73.759552,-1932,203,-581
73.769259,-1415,-484,-154
73.778935,-1474,682,-411
73.788642,-3075,3953,-2429
73.798319,-2773,2262,-2572
73.808319,-1543,-1043,-2304
73.818026,-2279,-1145,-2657
73.827703,-2570,-984,-1820
73.837410,-2156,-897,-1463
73.847086,-2181,-342,-1125
73.857086,-1825,-374,-658
73.866793,-1231,-800,-900
73.876470,-975,-586,-1040
73.886177,-843,-86,-993
73.895853,-593,-47,-995
73.905853,-315,1,-1300
73.915560,-193,208,-1734
73.925267,-443,-6,-1865
73.934944,-902,-397,-2063
73.944651,-1170,-620,-2254
73.954651,-1206,-840,-2056
73.964327,-1191,-1058,-1781
73.974034,-1175,-1218,-1645
73.983711,-1050,-1245,-1532
73.993418,-784,-1106,-1525
74.3418,-468,-861,-1620
74.13094,-156,-584,-1686
74.22801,99,-452,-1909
74.32508,246,-433,-2259
74.42185,135,-370,-2434
74.52185,-181,-408,-2466
74.61892,-279,-613,-2516
74.71568,-220,-713,-2507
74.81276,-338,-493,-2098
74.90952,-329,-365,-1725
74.100952,-184,-645,-2168
74.110659,3,-354,-1647
74.120336,312,-293,-2022
74.130043,96,-1199,-4171
74.139750,287,-379,-3002
74.149750,739,607,-1995
74.159426,208,-375,-2525
74.169133,94,-627,-1854
74.178810,198,-143,-1990
74.188517,-36,-181,-2125
74.198517,32,-186,-1991
74.208193,128,-129,-2088
74.217900,171,-118,-2041
74.227577,108,-27,-2025
74.237284,7,28,-2038
74.247284,87,-42,-2041
74.256991,114,-86,-2045
74.266667,42,-38,-2045
74.276374,48,-34,-2022
74.286051,64,-40,-2029
74.296051,53,-29,-2063
74.305758,41,-42,-2043
74.315434,44,-42,-2018
74.325141,46,-36,-2034
88.585240,48,-29,-2027
88.594947,42,-34,-2047
88.604624,41,-31,-2056
88.614624,44,-27,-2043
88.624331,44,-40,-2043
88.634007,53,-38,-2036
88.643714,51,-24,-2031
88.653422,42,-31,-2052
88.663422,51,-45,-2052
88.673098,44,-45,-2023
93.705907,49,-40,-2156
93.715614,49,-40,-2048
93.725290,53,-38,-1950
93.735290,51,-56,-2027
93.744997,49,-52,-2095
93.754674,48,-25,-2056
93.764381,39,-17,-2023
93.774058,44,-27,-2011
93.784058,49,-25,-2034
93.793765,46,-24,-2079
93.803441,49,-43,-2066
94.37569,171,16,-2047
94.47276,242,167,-2043
94.56953,-6,253,-2061
94.66630,-134,196,-2050
94.76630,-93,-59,-2038
94.86337,-106,-331,-2066
94.96013,-34,-368,-2052
94.105720,98,-292,-2056
94.115397,182,-261,-2072
94.125397,241,-284,-2131
94.135104,283,-331,-2361
94.144780,244,-404,-2541
94.154487,249,-486,-2673
94.164164,212,-400,-2923
94.174164,82,-204,-3089
94.183871,62,-152,-3013
94.193547,149,-272,-2689
94.203254,371,-570,-2209
94.212931,674,-1024,-1765
94.222931,908,-1449,-1545
94.232638,1123,-1729,-1645
94.242314,1260,-1809,-1975
94.252021,1237,-1695,-2306
94.261698,1142,-1468,-2502
94.271698,957,-1313,-2629
94.281405,742,-1288,-2659
94.291081,594,-1200,-2472
94.300788,430,-947,-2129
94.310465,319,-602,-1782
94.320465,337,-309,-1534
94.330172,376,-200,-1420
94.339849,428,-288,-1491
94.349556,523,-434,-1695
94.359232,587,-525,-1795
94.369232,617,-558,-1806
94.378939,607,-497,-1815
94.388616,503,-352,-1750
94.398323,278,-288,-1700
94.407999,-47,-356,-1756
94.417999,-202,-356,-1865
94.427706,-152,-120,-1904
94.437383,-167,291,-1766
94.447090,-134,617,-1606
94.456766,-2,680,-1581
94.466766,12,503,-1579
94.476473,-47,260,-1532
94.486150,-40,137,-1538
94.495857,-15,144,-1584
94.505533,-83,210,-1665
94.515533,-236,273,-1848
94.525240,-354,241,-2104
94.534917,-343,183,-2325
94.544624,-199,198,-2409
94.554300,-47,232,-2341
94.564300,21,208,-2181
94.574007,62,158,-1897
94.583684,89,105,-1679
94.593391,53,26,-1722
94.603068,-29,316,-1915
94.613068,21,-36,-2170
94.622775,-131,-13,-2095
94.632451,-590,1906,-1941
94.642158,-891,967,-1968
94.651835,-1158,-399,-2025
94.661835,-763,1371,-2638
94.671511,-42,937,-2784
94.681218,-17,-506,-1941
94.690925,12,-154,-1327
94.700602,696,783,-1711
94.710602,1515,857,-2211
94.720309,967,-302,-1506
94.729985,-477,-384,-1447
94.739662,-741,257,-2290
94.749369,-170,89,-2277
94.759369,5,-211,-2023
94.769045,-133,-288,-1922
94.778752,-179,-213,-1907
94.788429,-111,-224,-2034
94.798136,-56,-295,-2132
94.808136,-42,-231,-2241
94.817812,-42,-186,-2275
94.827519,-70,-225,-2177
94.837196,-118,-265,-2036
94.846903,-138,-256,-1948
94.856903,-133,-247,-1936
94.866579,-129,-265,-1938
94.876287,-127,-267,-1934
94.885963,-149,-284,-1947
94.895670,-181,-315,-1954
94.905670,-195,-317,-1916
94.915347,-224,-322,-1861
94.925054,-252,-363,-1850
94.944437,-202,-449,-2004
94.954437,-188,-445,-2093
94.964114,-209,-483,-2102
94.973821,-192,-540,-2045
94.983497,-195,-584,-1977
94.993204,-240,-643,-1909
95.3204,-247,-716,-1856
95.12881,-252,-775,-1847
95.22588,-256,-818,-1872
95.32264,-259,-847,-1873
95.100738,-131,-783,-1959
95.110415,-117,-750,-2032
95.120122,-127,-733,-2052
95.129798,-113,-718,-2018
95.139475,-120,-670,-1968
95.149475,-147,-688,-1906
95.159182,-172,-733,-1895
95.168859,-202,-745,-1943
95.178566,-243,-766,-1947
95.188242,-275,-808,-1904
95.266393,-277,-684,-1909
95.276100,-279,-659,-1891
95.285776,-306,-647,-1863
95.295776,-331,-624,-1822
95.305483,-345,-620,-1797
95.315160,-375,-652,-1781
95.324867,-388,-681,-1788
95.334543,-363,-686,-1813
95.344543,-333,-652,-1827
95.354250,-338,-611,-1868
95.393310,-320,-481,-1802
95.403017,-304,-434,-1818
95.412694,-300,-354,-1754
95.422401,-327,-297,-1793
95.432078,-299,-422,-2036
95.442078,-270,-525,-2082
95.451785,-318,-447,-1931
95.461461,-381,-399,-1866
95.471168,-429,-440,-1838
95.480845,-483,-486,-1831
95.490845,-511,-513,-1868
95.500552,-470,-515,-1865
95.510228,-442,-465,-1890
95.519935,-472,-429,-2000
95.529612,-506,-488,-2034
95.539612,-556,-568,-1966
95.549319,-586,-590,-1957
95.558995,-558,-525,-1915
95.568702,-529,-474,-1813
95.578379,-508,-495,-1809
95.588379,-531,-424,-1897
95.598086,-542,-315,-1866
95.607762,-459,-342,-1691
95.617469,-468,-443,-1747
95.627146,-579,-554,-1863
95.637146,-602,-599,-1716
95.646853,-565,-567,-1686
95.656560,-609,-509,-1790
95.666236,-658,-495,-1799
95.675943,-640,-599,-1850
95.685943,-588,-786,-1956
95.695620,-545,-924,-2097
95.705327,-592,-999,-2288
95.715004,-643,-1036,-2409
95.724711,-697,-1025,-2368
95.734711,-783,-1036,-2193
95.744418,-795,-1059,-1979
95.754094,-766,-1009,-1816
95.763771,-718,-945,-1775
95.773478,-658,-916,-1791
95.783478,-686,-883,-1782
95.793185,-740,-925,-1845
95.802861,-727,-1031,-1948
95.812568,-750,-1079,-1915
95.822245,-734,-1134,-1884
95.832245,-554,-1170,-1893
95.841952,-395,-1183,-1727
95.851628,-297,-1206,-1513
95.861335,-147,-1093,-1463
95.871012,-118,-1008,-1538
95.881012,-270,-1111,-1695
95.890719,-511,-1163,-1950
95.900426,-841,-1136,-2193
95.910102,-1000,-1058,-2316
95.919809,-831,-959,-2193
95.929809,-486,-1088,-1800
95.939486,-129,-1325,-1441
95.949193,89,-1365,-1263
95.958870,133,-1270,-1222
95.968577,105,-1075,-1341
95.978577,42,-815,-1554
95.988253,-65,-763,-1749
95.997960,-134,-958,-1832
96.7637,-154,-1206,-1866
96.17344,-218,-1350,-1966
96.27344,-281,-1295,-2047
96.37020,-320,-1127,-1979
96.46727,-408,-1031,-1784
96.56404,-511,-991,-1636
96.66111,-570,-927,-1599
96.76111,-518,-883,-1595
96.85787,-431,-883,-1613
96.95494,-417,-856,-1665
96.105171,-388,-783,-1704
96.114878,-347,-754,-1700
96.124878,-322,-747,-1663
96.134585,-333,-699,-1645
96.144261,-470,-724,-1727
96.153968,-638,-797,-1795
96.163645,-674,-793,-1743
96.173645,-631,-758,-1688
96.183352,-572,-750,-1656
96.193028,-452,-784,-1595
96.202735,-338,-847,-1531
96.212412,-333,-904,-1507
96.222412,-386,-927,-1552
96.232119,-413,-915,-1625
96.241796,-427,-916,-1672
96.251503,-459,-963,-1693
96.261179,-500,-1006,-1697
96.271179,-522,-988,-1654
96.280886,-492,-886,-1581
96.290563,-463,-756,-1577
96.300270,-500,-729,-1625
96.309977,-561,-784,-1629
96.319977,-568,-822,-1607
96.329653,-549,-852,-1622
96.339360,-549,-913,-1668
96.349037,-550,-1006,-1693
96.358744,-529,-1072,-1699
96.368744,-524,-1093,-1718
96.378420,-534,-1072,-1757
96.407511,-661,-986,-1788
96.417511,-624,-993,-1838
96.427187,-584,-1036,-1904
96.436894,-599,-1091,-1799
96.446571,-590,-1079,-1707
96.456278,-622,-1036,-1736
96.466278,-724,-1025,-1747
96.475985,-809,-1022,-1738
96.485662,-902,-1004,-1729
96.495369,-925,-940,-1757
96.505045,-893,-904,-1804
96.515045,-900,-961,-1797
96.524752,-809,-1031,-1788
96.534429,-627,-1138,-1772
96.544136,-527,-1209,-1749
96.553812,-552,-1129,-1759
96.563812,-672,-1068,-1729
96.573519,-811,-1033,-1679
96.583196,-883,-904,-1686
96.592903,-911,-831,-1702
96.602610,-945,-816,-1711
96.612610,-947,-779,-1704
96.622286,-891,-736,-1690
96.631993,-818,-661,-1690
96.641670,-772,-588,-1674
96.651377,-756,-581,-1649
96.661377,-768,-645,-1609
96.671053,-734,-770,-1616
96.680760,-608,-959,-1699
96.690437,-449,-1129,-1722
96.700144,-399,-1095,-1670
96.710144,-556,-856,-1686
96.719820,-727,-593,-1807
96.729527,-741,-474,-1870
96.739204,-749,-472,-1788
96.748911,-841,-536,-1518
96.758911,-941,-704,-1056
96.768588,-908,-924,-691
96.778295,-961,-1059,-1091
96.787971,-1307,-920,-2107
96.797678,-1686,-711,-2456
96.807678,-1893,-858,-2313
96.817355,-1536,-1106,-2240
96.827062,-968,-1190,-1793
96.836738,-945,-1134,-1390
96.846445,-1113,-813,-1406
96.856445,-1179,-568,-1420
96.866122,-1225,-711,-1297
96.875829,-1179,-918,-1161
96.885505,-1145,-922,-1061
96.895212,-1056,-825,-1056
96.905212,-927,-727,-1063
96.914919,-997,-609,-1022
96.924596,-977,-531,-1106
96.934272,-849,-372,-1070
96.943979,-1022,-643,-1774
96.953979,-1259,-884,-3080
96.963686,-1108,-140,-2697
96.973363,-813,-52,-1891
96.983070,-802,-625,-1854
96.992746,-875,-640,-1545
97.2746,-938,-854,-1399
97.12453,-1133,-1211,-1425
97.22130,-1036,-1081,-1279
97.31837,-872,-1013,-1224
97.41514,-1209,-1288,-1445
97.51514,-1381,-1218,-1616
97.61221,-1234,-1090,-1624
97.70897,-1261,-1281,-1563
97.80604,-1252,-1340,-1402
97.90281,-1175,-1284,-1327
97.100281,-1186,-1299,-1290
97.109988,-1234,-1325,-1247
97.119664,-1281,-1374,-1247
97.129341,-1270,-1424,-1195
97.139048,-1247,-1397,-1158
97.149048,-1229,-1324,-1161
97.158755,-1172,-1265,-1133
97.168431,-1163,-1224,-1093
97.197815,-1149,-1316,-1213
97.207522,-1154,-1329,-1183
97.217198,-1138,-1341,-1111
97.226905,-1086,-1291,-1084
97.236582,-1056,-1222,-1088
97.246582,-1056,-1222,-1068
97.256289,-1061,-1222,-1070
97.265965,-1086,-1225,-1125
97.275672,-1118,-1261,-1129
97.285349,-1136,-1302,-1099
97.382883,-1241,-1363,-1190
97.392883,-1243,-1350,-1252
97.402590,-1254,-1325,-1324
97.412267,-1256,-1324,-1370
97.421974,-1208,-1352,-1402
97.431650,-1191,-1388,-1440
97.441650,-1211,-1416,-1486
97.451357,-1181,-1368,-1525
97.461034,-1093,-1188,-1549
97.470741,-975,-1136,-1579
97.480417,-984,-1118,-1602
97.490417,-1020,-829,-1668
97.500124,-872,-700,-1793
97.509801,-768,-779,-1857
97.519508,-906,-781,-1965
97.529215,-1018,-829,-2200
97.539215,-881,-959,-2277
97.548891,-908,-1081,-2188
97.558599,-1145,-1170,-2298
97.568275,-1170,-1370,-2379
97.577982,-1252,-1407,-2179
97.587982,-1166,-1225,-2086
97.597659,-781,-1245,-2143
97.607366,-793,-1154,-2127
97.617042,-956,-845,-2066
97.626749,-934,-731,-2056
97.636749,-925,-852,-2082
97.646456,-845,-1086,-2018
97.656133,-749,-1232,-1822
97.665840,-775,-1334,-1547
97.675516,-936,-1379,-1502
97.685516,-1090,-1302,-1657
97.695223,-1083,-1322,-1606
97.704900,-1090,-1313,-1531
97.714607,-1215,-1238,-1466
97.724283,-1259,-1099,-1322
97.734283,-1224,-865,-1240
97.743990,-1084,-909,-1163
97.753697,-847,-1136,-1152
97.763374,-1058,-1170,-1227
97.773081,-1663,-1143,-1343
97.783081,-1918,-1331,-1379
97.792757,-1807,-1475,-1220
97.802464,-1754,-1327,-1079
97.812141,-1704,-1070,-1022
97.821848,-1581,-765,-920
97.831848,-1449,-500,-877
97.841525,-1350,-402,-950
97.851232,-1368,-295,-1083
97.860908,-1388,-195,-1245
97.870615,-1368,-168,-1393
97.880615,-1402,-133,-1527
97.890322,-1500,-161,-1609
97.899999,-1629,-202,-1643
97.909706,-1675,-283,-1613
97.919382,-1649,-331,-1506
97.929382,-1584,-133,-1424
97.939089,-1502,85,-1361
97.948766,-1445,194,-1300
97.958473,-1361,253,-1300
97.968149,-1341,132,-1316
97.978149,-1438,14,-1316
97.987856,-1424,-58,-1313
97.997533,-1288,-247,-1270
98.7240,-1234,-404,-1188
98.16916,-1191,-467,-1090
98.26916,-1166,-518,-1015
98.36623,-1347,-520,-1022
98.46330,-1534,-440,-1097
98.56007,-1488,-311,-1154
98.65714,-1424,-190,-1156
98.75714,-1431,-204,-1175
98.85391,-1432,-306,-1222
98.95098,-1463,-381,-1213
98.104774,-1475,-458,-1177
98.114481,-1434,-547,-1136
98.124481,-1354,-647,-999
98.134158,-1400,-677,-820
98.143865,-1629,-568,-756
98.153572,-1756,-368,-799
98.163248,-1695,-177,-884
98.173248,-1618,-38,-993
98.182955,-1584,87,-1102
98.192632,-1556,183,-1200
98.202339,-1454,230,-1293
98.212015,-1400,221,-1350
98.222015,-1497,183,-1313
98.231722,-1584,162,-1300
98.241399,-1654,110,-1365
98.251106,-1724,23,-1359
98.260782,-1770,10,-1265
98.270782,-1775,66,-1152
98.280489,-1675,164,-1097
98.290166,-1584,344,-1115
98.299873,-1534,535,-1133
98.309549,-1440,665,-1106
98.319549,-1391,667,-1049
98.329256,-1393,564,-1052
98.338933,-1418,451,-1075
98.348640,-1513,328,-1077
98.358317,-1590,214,-1088
98.368317,-1636,167,-1081
98.378024,-1686,241,-1104
98.387731,-1700,398,-1183
98.397407,-1684,541,-1268
98.407114,-1631,649,-1284
98.417114,-1579,726,-1218
98.426791,-1575,771,-1186
98.436498,-1529,790,-1156
98.446174,-1527,817,-1083
98.455881,-1534,823,-1066
98.465881,-1350,664,-1056
98.475558,-1345,580,-999
98.485265,-1597,707,-1063
98.494972,-1697,721,-1127
98.504648,-1729,698,-1040
98.514648,-1684,774,-997
98.524355,-1509,819,-990
98.534062,-1438,851,-958
98.543739,-1429,896,-970
98.553446,-1425,962,-1025
98.563446,-1450,1039,-1115
98.573122,-1395,1040,-1138
98.582829,-1363,1021,-1108
98.592506,-1509,1146,-1179
98.602213,-1565,1365,-1213
98.612213,-1415,1460,-1124
98.621890,-1211,1489,-1156
98.631597,-1058,1521,-1125
98.641273,-1108,1533,-968
98.650980,-1275,1608,-1015
98.660980,-1320,1694,-1018
98.670687,-1222,1751,-943
98.680364,-1091,1828,-1016
98.690071,-1031,1910,-1084
98.699747,-984,1930,-1100
98.709747,-891,1885,-1120
98.719454,-941,1867,-1100
98.729131,-1072,1849,-1063
98.738838,-1022,1774,-1127
98.748545,-979,1690,-1161
98.758545,-1016,1564,-1049
98.768221,-990,1437,-965
98.777928,-947,1351,-888
98.787605,-965,1223,-731
98.797312,-1031,1105,-608
98.807312,-1072,1144,-600
98.817019,-1097,1321,-615
98.826695,-1061,1458,-593
98.836402,-893,1503,-568
98.846079,-775,1496,-531
98.856079,-783,1471,-545
98.865786,-834,1483,-615
98.875493,-899,1476,-654
98.885170,-936,1448,-652
98.894877,-961,1439,-643
98.904877,-933,1430,-663
98.914553,-831,1444,-691
98.924260,-847,1481,-677
98.933967,-843,1619,-650
98.943644,-584,1805,-597
98.953644,-522,1773,-565
98.963351,-718,1705,-681
98.973058,-668,1803,-829
98.982734,-534,1821,-816
98.992441,-549,1737,-720
99.2441,-583,1690,-634
99.12148,-616,1683,-602
99.21825,-631,1765,-658
99.31532,-575,1897,-645
99.41239,-475,1969,-533
99.51239,-379,1992,-420
99.60915,-356,2040,-288
99.70622,-413,2028,-250
99.80299,-484,1865,-363
99.90006,-527,1755,-467
99.100006,-488,1862,-554
99.109683,-379,2003,-606
99.119390,-275,2058,-611
99.129097,-181,2090,-616
99.138773,-118,2062,-568
99.148773,-154,1976,-497
99.158480,-249,1962,-463
99.168157,-288,2010,-424
99.177864,-243,2046,-358
99.187540,-206,2058,-284
99.197540,-213,2035,-231
99.207247,-238,1962,-190
99.226631,-300,1840,-177
99.236307,-283,1921,-200
99.246307,-231,2072,-206
99.256014,-145,2078,-163
99.265721,-84,2006,-99
99.275398,-99,2124,-172
99.285105,-177,2114,-263
99.295105,-270,1905,-283
99.304781,-313,1826,-338
99.314488,-334,1837,-345
99.324165,-304,1922,-306
99.333872,-181,2044,-267
99.343872,-115,2060,-236
99.353579,-150,1997,-275
99.363256,-247,1935,-338
99.372963,-368,1853,-374
99.382639,-283,1774,-327
99.392639,-483,1839,-322
99.402346,-336,1812,-295
99.412023,619,1847,-34
99.421730,203,2421,-124
99.431437,-538,2649,-393
99.441437,-215,2126,-274
99.451113,-231,1815,-188
99.460820,-250,1847,-174
99.470497,-254,1896,-218
99.480204,-638,1833,-318
99.490204,-445,1705,-215
99.499911,71,1962,-245
99.509587,7,2294,-340
99.519294,-156,2189,-211
99.528971,-183,2078,-300
99.538971,-279,2131,-438
99.548678,-268,2085,-331
99.558354,-234,2039,-352
99.568061,-302,2049,-390
99.577738,-306,1956,-222
99.587738,-256,1985,-131
99.597445,-259,2146,-129
99.607152,-261,2128,-92
99.616828,-279,2065,-149
99.626536,-317,2015,-247
99.636536,-331,1930,-263
99.646212,-334,1919,-225
99.655919,-308,1964,-186
99.665626,-279,1962,-150
99.675303,-256,1969,-83
99.685303,-270,2028,-72
99.714393,-370,1989,-86
99.724070,-320,1776,-58
99.734070,12,2089,166
99.743777,-63,2480,39
99.753453,-254,2101,-108
99.763160,-290,1821,21
99.772867,-292,1974,51
99.782867,-192,2046,10
99.792544,-222,2060,-40
99.802251,-186,2051,-42
99.811927,-124,2033,-56
99.821634,-209,2031,-165
99.831634,-186,2001,-156
99.841311,-161,1926,-83
99.851018,-213,1851,-52
99.860725,-204,1865,14
99.870401,-181,1880,96
99.880401,-115,1933,160
99.890109,-67,2105,239
99.899785,-143,2140,244
99.909492,-179,2024,126
99.919169,-142,1990,48
99.929169,-149,2014,42
99.938876,-163,2006,7
99.948552,-152,2006,-75
99.958259,-154,2042,-133
99.967966,-165,2051,-106
99.977966,-156,2017,-31
99.987643,-147,2008,32
99.997350,-149,2008,28
100.16733,-161,2006,-72
100.26733,-149,2019,-49
100.36410,-167,2024,-17
100.46117,-170,2033,-13
100.55793,-152,2031,16
100.65500,-152,2026,53
100.75500,-147,2037,62
100.85177,-143,2033,57
100.94884,-152,2006,51
100.104591,-133,1976,49
100.133974,-136,2015,-88
100.143651,-131,2006,-122
100.153358,-136,1992,-106
100.163035,-143,2005,-56
100.173035,-145,2015,-15
100.182742,-138,2015,14
100.192418,-150,2031,26
100.202125,-163,2046,26
100.211832,-158,2042,35
100.221832,-149,2037,26
100.241216,-147,2031,-86
100.250892,-134,2021,-117
100.260599,-138,2024,-95
100.270599,-147,2019,-43
100.280276,-152,2003,3
100.289983,-149,2019,24
100.299659,-138,2033,28
100.309366,-145,2015,17
100.319366,-136,2014,1
100.329043,-120,2030,-8
100.368133,-143,2010,-109
100.377840,-122,2012,-75
100.387517,-122,2001,-47
100.397224,-138,1989,-20
100.406901,-124,2012,14
100.416901,-127,2030,57
100.426608,-133,2026,80
100.436315,-122,2037,64
100.445991,-113,2015,21
100.455698,-115,1990,-20
100.728976,-142,2039,144
100.738683,-143,2017,162
100.748359,-127,2042,83
100.758066,-122,2071,-15
100.768066,-122,2072,-97
100.777743,-124,2064,-104
100.787450,-108,2033,-54
100.797126,-92,2001,3
100.806833,-109,1960,103
100.816833,-117,1903,158
100.826510,-86,1926,80
100.836217,-74,1960,48
100.845893,-86,1914,-11
100.855600,-86,1912,-124
100.865600,-77,1930,-75
100.875277,-81,1971,-108
100.884984,-84,2058,-259
100.894661,-93,2097,-224
100.904368,-109,2112,-49
100.914368,-102,2110,67
100.924044,-104,2065,24
100.933751,-117,2024,-115
100.943428,-106,2019,-190
100.953135,-100,2015,-213
100.963135,-133,2003,-234
100.972811,-179,2008,-199
100.982518,-256,1965,-170
100.992195,-361,1889,-131
101.1902,-302,1896,-72
101.11902,-138,1989,-50
101.21578,-175,2033,-13
101.30947,-108,2083,-29
101.40682,171,2278,-92
101.50448,108,2283,-34
101.60183,-299,2014,80
101.69949,-104,1939,232
101.79714,112,2251,271
101.89449,-1418,1560,26
101.99215,-1374,987,78
101.108981,180,2356,-118
101.118716,48,2742,-706
101.128481,505,2555,-220
101.138247,348,2726,242
101.147982,-420,2230,137
101.157748,-22,2097,328
101.167483,66,1987,221
101.177248,-11,1810,8
101.187014,51,1792,-4
; 101.187 stopping logging: USB connected
