;Title, http://www.gcdataconcepts.com, x16-1d, ADXL345
;Version, 1877, Build date, Jan  8 2020,  SN:CCDC4016ECDDBE3
;Start_time, 2022-11-16, 00:28:46.448
;Uptime, 4,sec,  Vbat, 1344, mv, EOL, 1100, mv
;SampleRate, 100,Hz
;Deadband, 0, counts
;DeadbandTimeout, 15.000,sec
;Time, Ax, Ay, Az
0.160982,312,-2506,-338
0.170720,74,-2095,-367
0.180519,44,-1957,-197
0.190256,78,-2257,162
0.200256,41,-2059,262
0.210055,-2,-1743,232
0.219823,291,-1668,435
0.229560,564,-1793,851
0.239328,62,-1738,1076
0.249328,-233,-1431,1023
0.259127,241,-1274,912
0.268895,169,-1268,1039
0.278663,-175,-1432,1306
0.288431,30,-1590,1637
0.298431,260,-1211,1523
0.308199,657,-674,1121
0.317967,710,-490,1230
0.327735,-52,-404,1396
0.337503,-254,-322,1739
0.347503,221,-234,1835
0.357272,501,-84,1340
0.367040,403,57,1360
0.376777,141,285,1549
0.386545,307,487,1564
0.396545,164,812,1535
0.406313,-240,1306,1107
0.416081,19,1265,1392
0.425849,146,973,1546
0.435617,439,851,758
0.445617,805,644,1185
0.455386,78,921,1440
0.465154,-458,1665,569
0.474922,-129,2005,689
0.484690,-113,1956,994
0.494690,-74,1812,530
0.504458,467,1599,251
0.514226,485,1458,292
0.523963,-163,1594,248
0.533732,-615,1992,-36
0.543732,-656,2078,-354
0.553437,-118,1840,-488
0.563297,473,1885,-434
0.573065,217,1837,-377
0.582833,-250,1655,-772
0.592601,-261,1756,-1457
0.602601,-263,1701,-1108
0.612339,-292,1583,-770
0.622107,35,1403,-2286
0.631875,366,1133,-2015
0.641643,289,1419,-611
0.651643,64,1449,-1652
0.661411,-72,926,-2488
0.671179,-77,678,-2431
0.680947,-33,567,-2447
0.690715,-84,623,-2404
0.700715,58,553,-2420
0.710483,221,160,-2277
0.720251,137,-20,-2302
0.730019,80,-108,-2541
0.739787,-50,-345,-2384
0.749787,-34,-725,-2291
0.759555,164,-1015,-2745
0.769324,194,-1066,-2709
0.779092,82,-993,-2218
0.788829,-102,-1011,-2313
0.798829,10,-1152,-2297
0.808597,258,-1091,-1945
0.818365,271,-1099,-1720
0.828133,130,-1416,-1545
0.837901,-138,-1779,-1440
0.847901,-193,-1984,-1363
0.857669,112,-2106,-1434
0.867438,523,-2341,-915
0.877206,505,-2288,-825
0.886974,-11,-2000,-1275
0.896974,-249,-2000,-836
0.906742,1,-2025,-581
0.916510,303,-2207,-399
0.926278,416,-2254,-61
0.936046,316,-1916,-115
0.946046,53,-2081,-9
0.955814,-140,-2186,266
0.965582,-56,-1824,264
0.975350,196,-1893,298
0.985118,280,-1972,646
0.995118,330,-1624,799
1.004856,333,-1611,807
1.014624,-49,-1838,873
1.024392,-170,-1590,894
1.034160,123,-1340,1067
1.044160,367,-1393,1242
1.053928,614,-1381,1333
1.063696,453,-1416,1458
1.073464,-117,-1445,1515
1.083232,-425,-1259,1519
1.093232,-40,-975,1453
1.102970,646,-874,1489
1.112738,892,-836,1531
1.122506,726,-634,1269
1.132274,308,-650,1590
1.142274,-220,-733,2083
1.152042,-365,-458,1810
1.161810,183,-215,1630
1.171578,755,-133,1731
1.181346,803,-13,1730
1.191346,566,119,1519
1.201114,132,160,1605
1.210882,-279,183,1926
1.220650,-61,407,1830
1.230419,623,617,1692
1.240419,910,758,1469
1.250187,635,857,1278
1.259955,-9,789,1646
1.269723,-481,832,1856
1.279460,-127,1019,1592
1.289460,574,1123,1349
1.299259,823,1164,1130
1.308996,517,1108,1217
1.318764,-129,1112,1498
1.328533,-409,1380,1180
1.338533,62,1594,937
1.348301,530,1621,1071
1.358069,580,1606,787
1.367837,203,1526,776
1.377605,-356,1576,908
1.387605,-279,1756,458
1.397373,285,1808,378
1.407141,387,1826,544
1.416909,-38,1921,296
1.426677,-404,1981,71
1.436677,-449,1897,19
1.446445,-70,1773,-86
1.456213,494,1833,-272
1.465981,467,1955,-359
1.475749,-211,2001,-454
1.485749,-720,1933,-670
1.495517,-456,1612,-929
1.505285,151,1528,-1016
1.515054,285,1787,-931
1.524822,55,1778,-833
1.534822,-175,1740,-1077
1.544590,-202,1328,-2279
1.553989,-8,807,-1984
1.564154,82,1431,-891
1.573922,255,1567,-1732
1.583690,339,849,-2125
1.593690,-8,873,-1997
1.603458,-154,844,-2268
1.613226,28,549,-2431
1.622994,24,578,-2457
1.632762,37,367,-2204
1.642762,192,5,-2125
1.652530,149,-15,-2448
1.662298,14,-31,-2522
1.672066,-34,-390,-2241
1.681835,30,-738,-2418
1.691835,233,-709,-2438
1.701603,346,-981,-2261
1.711033,132,-1177,-2466
1.721167,-167,-977,-2325
1.730935,-183,-1075,-2198
1.740703,74,-916,-2127
1.750703,314,-818,-1761
1.760471,296,-1200,-1461
1.770239,67,-1590,-1334
1.780007,-204,-1818,-1497
1.789775,-95,-1934,-1570
1.799775,408,-2234,-1152
1.809543,612,-2382,-840
1.819311,255,-2111,-1152
1.829079,-125,-1891,-1141
1.838847,-154,-1970,-772
1.848847,142,-2050,-600
1.858616,474,-2143,-372
1.868384,348,-2329,-195
1.878152,-29,-2056,-179
1.887920,-33,-1763,-174
1.897920,173,-2097,130
1.907688,205,-2207,364
1.917456,230,-1875,249
1.927224,196,-1888,362
1.936992,-17,-1995,692
1.946992,-50,-1711,692
1.956760,253,-1515,655
1.966528,476,-1704,864
1.976296,349,-1784,915
1.986064,146,-1575,967
1.996064,-45,-1468,1196
2.005832,-15,-1554,1396
2.015600,441,-1488,1439
2.025368,680,-1229,1326
2.035137,364,-1307,1373
2.045137,-81,-1404,1449
2.054905,-58,-1161,1455
2.064673,401,-1006,1512
2.074441,676,-822,1373
2.084209,665,-797,1328
2.094209,467,-1004,1648
2.103977,233,-918,1828
2.113745,96,-613,1737
2.123513,-122,-372,1764
2.133281,149,-265,1921
2.143281,833,-199,1781
2.153049,767,-65,1415
2.162817,273,-29,1581
2.172585,160,-104,2065
2.182353,323,-34,2046
2.192353,378,203,1519
2.202121,376,360,1515
2.211889,532,478,1862
2.221658,530,699,1624
2.231426,266,792,1576
2.241426,69,789,1728
2.251194,191,764,1726
2.260962,307,780,1594
2.270730,257,932,1299
2.280498,433,1014,1403
2.290498,542,1071,1594
2.300266,285,1237,1430
2.310034,78,1364,1214
2.319802,76,1342,1219
2.329570,239,1287,1256
2.339570,439,1369,1142
2.349338,282,1562,967
2.359106,7,1646,844
2.368874,-93,1605,1003
2.378642,-2,1685,860
2.388642,407,1746,417
2.398410,441,1708,617
2.408179,-92,1846,660
2.417947,-286,1946,158
2.427715,-131,1876,226
2.437715,-74,1896,382
2.447483,-92,1930,-58
2.457251,44,1874,-218
2.467019,324,1896,-111
2.476787,242,2012,-317
2.486787,-317,2001,-440
2.496555,-641,1780,-509
2.506323,-250,1639,-824
2.516091,269,1771,-929
2.525859,160,1931,-731
2.535859,-142,1844,-831
2.545627,-143,1499,-1325
2.555027,-161,1464,-1227
2.565191,-127,1564,-1607
2.574960,73,1005,-2177
2.584728,182,1099,-1195
2.594728,160,1808,-1424
2.604496,121,1265,-2041
2.614264,30,612,-1804
2.624032,-15,799,-2486
2.633800,92,737,-2604
2.643800,91,512,-1945
2.653568,-20,498,-1902
2.663336,14,392,-2338
2.673104,108,123,-2482
2.682872,208,-197,-2539
2.692872,162,-234,-2411
2.702640,-74,-261,-1986
2.712408,-27,-533,-2279
2.722176,224,-620,-2552
2.731944,264,-893,-2202
2.741944,194,-1129,-2063
2.751712,83,-961,-2243
2.761481,-95,-1111,-2225
2.771249,-150,-1075,-1982
2.781017,7,-856,-1929
2.791017,189,-1040,-1754
2.800785,307,-1168,-1475
2.810553,224,-1491,-1275
2.820321,-102,-1888,-1411
2.830089,-58,-2032,-1581
2.840089,310,-2325,-1215
2.849857,348,-2125,-1004
2.859625,255,-1636,-1191
2.869393,194,-1879,-1108
2.879161,71,-2052,-875
2.889161,39,-1902,-813
2.898929,48,-2097,-631
2.908697,139,-2113,-400
2.918465,283,-1816,-384
2.928233,271,-2159,-313
2.938233,96,-2347,-68
2.948002,-45,-1734,-99
2.957770,105,-1895,-33
2.967538,224,-2365,282
2.977306,223,-1956,230
2.987306,380,-1715,158
2.997074,351,-1945,399
3.006842,121,-2009,657
3.016610,-4,-1915,601
3.026378,-31,-1845,423
3.036378,42,-1804,649
3.046146,151,-1724,796
3.055914,314,-1661,744
3.065682,523,-1724,905
3.075450,519,-1834,996
3.085450,205,-1799,1060
3.095218,-77,-1695,1185
3.104986,5,-1656,1223
3.114754,310,-1599,1174
3.124523,519,-1538,1096
3.134523,508,-1509,1117
3.144291,417,-1466,1183
3.154059,337,-1441,1219
3.163827,224,-1418,1296
3.173595,191,-1340,1381
3.183595,224,-1286,1426
3.193363,194,-1263,1485
3.203131,189,-1254,1558
3.212899,298,-1259,1567
3.222667,446,-1204,1487
3.232667,564,-1147,1449
3.242435,524,-1120,1474
3.252203,383,-1100,1521
3.261971,314,-1074,1598
3.271739,287,-966,1621
3.281739,358,-972,1690
3.291507,437,-1020,1753
3.301275,430,-883,1692
3.311044,448,-777,1703
3.320812,453,-718,1755
3.330812,448,-592,1705
3.340580,417,-563,1735
3.350348,308,-656,1821
3.360116,255,-666,1815
3.369884,314,-620,1830
3.379884,349,-588,1851
3.389621,407,-531,1837
3.399389,496,-504,1830
3.409158,505,-481,1840
3.418926,467,-467,1853
3.428926,439,-493,1869
3.438694,430,-431,1874
3.448462,448,-334,1844
3.458230,457,-292,1837
3.467998,428,-236,1872
3.477998,383,-231,1883
3.487766,364,-220,1910
3.497534,394,-122,1917
3.507302,451,-43,1876
3.517070,498,-22,1885
3.527070,501,3,1887
3.536838,457,10,1876
3.546606,407,-4,1905
3.556374,421,-2,1912
3.566142,446,23,1887
3.576142,435,67,1887
3.585910,432,141,1896
3.595679,416,224,1856
3.605447,394,312,1833
3.615215,410,391,1847
3.625215,471,391,1844
3.634983,521,326,1846
3.644751,499,305,1846
3.654519,480,324,1837
3.664287,480,339,1853
3.674287,419,373,1881
3.684055,374,458,1862
3.693823,385,569,1773
3.703591,428,655,1756
3.713359,460,683,1792
3.723359,430,665,1780
3.733127,378,642,1769
3.742895,353,644,1798
3.752633,376,698,1792
3.762401,419,789,1714
3.772401,446,882,1655
3.782169,471,928,1660
3.791937,476,871,1653
3.801705,423,817,1656
3.811473,328,853,1719
3.821473,257,926,1717
3.831241,326,1028,1623
3.841009,480,1103,1581
3.850777,467,1094,1574
3.860545,310,1062,1540
3.870545,274,1060,1542
3.880314,398,1087,1531
3.890082,483,1162,1464
3.899850,401,1264,1428
3.909618,223,1330,1435
3.919618,142,1330,1442
3.929386,244,1285,1440
3.939154,410,1290,1373
3.948922,457,1364,1258
3.958690,362,1440,1235
3.968690,255,1501,1260
3.978458,201,1537,1230
3.988226,182,1551,1164
3.997994,158,1580,1101
4.007762,196,1592,1053
4.017762,333,1571,1023
4.027500,355,1592,982
4.037268,173,1701,914
4.047036,114,1794,848
4.056804,237,1812,799
4.066804,301,1756,742
4.076572,208,1678,737
4.086340,-15,1731,737
4.096108,-54,1887,578
4.105876,123,1962,487
4.115876,128,1933,501
4.125644,-4,1878,430
4.135412,-61,1872,369
4.145180,-15,1926,258
4.154949,137,1978,99
4.164949,219,1985,85
4.174717,82,1947,76
4.184485,49,1921,-124
4.194253,108,1949,-254
4.204021,-99,2003,-172
4.214021,-493,2014,-195
4.223789,-611,1881,-470
4.233526,-45,1742,-716
4.243294,469,1924,-499
4.253063,314,2046,-347
4.263063,5,1778,-791
4.272831,-325,1678,-988
4.282599,-513,1753,-866
4.292367,-197,1685,-1134
4.302135,149,1690,-1149
4.312135,55,1690,-1006
4.321903,-183,1556,-1125
4.331671,-186,1526,-1115
4.341439,39,1176,-2300
4.351207,221,849,-2223
4.361207,117,1487,-665
4.370975,14,1712,-1416
4.380743,114,994,-2123
4.390511,41,689,-2002
4.400279,-56,776,-2268
4.410279,57,751,-2197
4.420047,107,696,-1909
4.429815,35,699,-1832
4.439584,-6,555,-2041
4.449352,91,273,-2359
4.459352,167,51,-2423
4.469120,98,-102,-2232
4.478888,60,-104,-2218
4.488656,0,-75,-2152
4.498424,-34,-274,-2134
4.508424,103,-517,-2406
4.518192,266,-625,-2300
4.527960,285,-770,-2007
4.537728,82,-736,-1704
4.547128,-129,-761,-1984
4.557292,-154,-1177,-2747
4.567292,98,-1175,-2075
4.577060,241,-736,-1522
4.586828,157,-840,-1891
4.596597,166,-1193,-1481
4.606365,44,-1266,-1470
4.616365,-92,-1397,-2047
4.626133,108,-1581,-1563
4.635901,228,-1643,-1022
4.645669,105,-1843,-1438
4.655437,198,-2098,-1540
4.665437,262,-1904,-1252
4.675205,117,-1695,-1229
4.684973,87,-1731,-1147
4.694741,119,-1791,-1049
4.704509,121,-2004,-965
4.714509,137,-2061,-836
4.724277,124,-1938,-761
4.734045,101,-1932,-670
4.743813,142,-1993,-577
4.753581,223,-2052,-458
4.763581,246,-2056,-361
4.773349,141,-2040,-306
4.783117,12,-2048,-254
4.792886,48,-2065,-143
4.802654,128,-2052,-29
4.812654,196,-2002,-11
4.822422,328,-2006,66
4.832190,301,-1997,178
4.841958,78,-1982,233
4.851726,-45,-2025,271
4.861726,41,-1984,294
4.871463,230,-1929,399
4.881232,326,-1915,458
4.891000,224,-1923,408
4.900768,64,-1993,483
4.910768,19,-1956,549
4.920536,130,-1811,544
4.930304,251,-1782,598
4.940072,251,-1895,657
4.949840,189,-2004,708
4.959840,139,-1965,769
4.969608,155,-1843,794
4.979376,239,-1816,783
4.989144,283,-1879,805
4.998912,251,-1873,844
5.008912,214,-1804,826
5.018680,221,-1788,801
5.028448,242,-1811,842
5.038216,260,-1802,857
5.047984,264,-1745,835
5.057984,248,-1731,867
5.067753,233,-1757,896
5.077521,244,-1741,907
5.087289,267,-1738,939
5.097057,280,-1759,949
5.107057,278,-1781,962
5.116825,253,-1761,992
5.126593,230,-1724,971
5.136361,258,-1732,937
5.146129,287,-1732,940
5.156129,285,-1724,944
5.165897,276,-1741,944
5.175665,269,-1741,940
5.185433,264,-1725,946
5.195201,266,-1738,946
5.205201,271,-1754,932
5.214969,264,-1754,935
5.224707,248,-1756,946
5.234475,239,-1766,928
5.244243,255,-1768,889
5.254243,276,-1761,867
5.264011,258,-1782,867
5.273779,230,-1807,862
5.283547,237,-1799,842
5.293315,251,-1790,833
5.303315,248,-1807,837
5.313083,248,-1829,805
5.322851,249,-1790,753
5.332619,253,-1790,742
5.342388,267,-1909,748
5.352388,262,-1943,714
5.362156,228,-1863,667
5.371924,219,-1865,633
5.381692,235,-1916,603
5.391460,214,-1941,578
5.401460,183,-1936,548
5.411228,205,-1927,494
5.420996,207,-1966,462
5.430764,173,-2006,439
5.440502,173,-2000,376
5.450502,191,-1990,339
5.460270,166,-1997,312
5.470038,132,-2023,260
5.479806,144,-2057,207
5.489574,183,-2041,146
5.499574,266,-1979,85
5.509342,269,-1977,41
5.519110,76,-2075,8
5.528878,-59,-2125,-70
5.538646,69,-2047,-140
5.548646,289,-1966,-156
5.558045,296,-1990,-243
5.568210,110,-2168,-308
5.577978,7,-2268,-302
5.587746,-31,-2013,-395
5.597514,19,-1770,-499
5.607514,226,-1982,-536
5.617283,285,-2198,-492
5.627051,148,-1932,-666
5.636819,51,-1813,-1122
5.646587,21,-1966,-950
5.656587,105,-1825,-581
5.666355,223,-1897,-947
5.676092,146,-1932,-1211
5.685860,64,-1654,-1149
5.695628,124,-1841,-1249
5.705628,89,-1836,-1291
5.715397,16,-1557,-1447
5.725165,116,-1561,-1532
5.734933,244,-1449,-1447
5.744701,157,-1447,-1674
5.754701,-15,-1409,-1797
5.764469,-38,-1152,-1843
5.774237,82,-1131,-1907
5.784005,167,-1095,-1836
5.793773,130,-970,-1988
5.803773,89,-891,-2056
5.813541,35,-768,-1988
5.823309,-8,-652,-2082
5.833047,28,-592,-2272
5.842815,133,-529,-2275
5.852815,139,-306,-2057
5.862583,-56,-150,-2011
5.872351,-104,-125,-2257
5.882119,55,-83,-2493
5.891887,194,-33,-2236
5.901887,249,248,-1940
5.911655,117,557,-1997
5.921423,-83,514,-1945
5.931191,-174,394,-2070
5.940959,-145,483,-2393
5.950959,12,640,-2332
5.960697,153,855,-1911
5.970465,124,1117,-1518
5.980233,41,1051,-1468
5.990001,-2,819,-1727
6.000001,-83,719,-1779
6.009769,-86,591,-1770
6.019537,-11,637,-1863
6.029305,30,657,-1291
6.039073,74,1640,-1390
6.049073,-9,3269,-2032
6.058841,-31,2219,-1115
6.068579,23,746,-879
6.078347,-138,1365,-1982
6.088115,-163,1460,-1865
6.098115,7,1264,-1211
6.107883,-38,1728,-1149
6.117651,-81,1828,-808
6.127419,-15,1726,-733
6.137187,57,1640,-1243
6.147187,164,1419,-1213
6.156955,-4,1710,-874
6.166693,-299,2122,-670
6.176461,-302,1790,-709
6.186229,-77,1556,-1043
6.196229,171,1780,-859
6.205997,149,1955,-331
6.215765,-165,2044,-458
6.225533,-297,1794,-747
6.235301,-134,1615,-711
6.245301,19,1917,-513
6.255069,55,2081,-286
6.264807,-4,1910,-383
6.274575,-106,1765,-567
6.284343,-152,1856,-447
6.294343,-99,2012,-265
6.304111,-38,1987,-279
6.313879,-52,1880,-377
6.323647,-109,1880,-395
6.333385,-125,1960,-308
6.343385,-79,1980,-256
6.353153,-40,1926,-315
6.362921,-52,1910,-320
6.372689,-92,1944,-267
6.382457,-90,1955,-256
6.392457,-68,1935,-277
6.402225,-81,1933,-288
6.411993,-86,1949,-270
6.421761,-84,1953,-288
6.431529,-84,1940,-315
6.441529,-68,1933,-306
6.451267,-67,1946,-329
6.461035,-79,1951,-368
6.470803,-81,1912,-354
6.480571,-74,1931,-342
6.490571,-63,1976,-375
6.500339,-56,1908,-400
6.510107,-43,1869,-449
6.519875,-70,1917,-475
6.529643,-56,1894,-456
6.539643,-90,1921,-534
6.549411,-170,1906,-572
6.559149,151,1696,-588
6.568917,137,2019,-872
6.578685,-147,2153,-863
6.588685,214,1699,-670
6.598453,337,1987,-1034
6.608221,314,2183,-1081
6.617989,305,2028,-593
6.627757,-318,2447,-1161
6.637757,-745,3137,-2484
6.647525,-500,3672,-2200
6.657294,-349,3687,-699
6.667062,-697,3262,-495
6.676799,-1047,2987,-1477
6.686799,-1002,3101,-1813
6.696567,-727,3271,-1300
6.706335,-572,3199,-1156
6.716103,-586,2847,-1691
6.725871,-404,2476,-1997
6.735871,-40,2460,-1893
6.745639,241,2667,-1786
6.755408,339,2797,-1795
6.765176,266,2783,-2150
6.774944,244,2715,-2509
6.784944,333,2665,-2336
6.794712,328,2538,-2052
6.804480,226,2381,-2181
6.814248,166,2199,-2400
6.823985,142,2006,-2331
6.833985,121,1981,-2163
6.843753,78,2049,-2120
6.853522,24,2024,-2211
6.863290,8,1924,-2286
6.873058,60,1717,-2206
6.883058,160,1435,-2098
6.892826,196,1269,-2091
6.902594,114,1128,-2086
6.912362,32,1005,-2063
6.922130,41,932,-2034
6.932130,83,860,-1972
6.941898,105,905,-1895
6.951666,53,971,-1827
6.961434,46,1065,-1804
6.971202,210,1208,-1852
6.981202,289,1162,-1906
6.990940,248,983,-1906
7.000708,346,819,-1988
7.010476,455,721,-2123
7.020244,492,737,-2043
7.030244,667,732,-1547
7.040012,783,719,-1213
7.049780,542,858,-1581
7.059548,217,1012,-2066
7.069316,139,1028,-2102
7.079316,276,808,-1624
7.089084,339,524,-1479
7.098852,191,412,-2041
7.108620,30,312,-2290
7.118358,-52,301,-2177
7.128358,44,398,-1875
7.138126,301,471,-1186
7.147894,469,471,-715
7.157662,460,396,-827
7.167430,316,376,-1052
7.177430,216,392,-1036
7.187198,157,398,-1002
7.196966,132,458,-986
7.206704,324,651,-936
7.216472,530,915,-799
7.226472,603,1253,-517
7.236240,751,1362,-320
7.246008,690,1362,-370
7.255776,510,1373,-834
7.265544,1039,574,-1016
7.275544,1428,237,-772
7.285312,1139,980,-1109
7.295080,1110,1026,-1622
7.304848,1155,658,-2022
7.314617,1103,574,-2263
7.324617,1110,610,-2098
7.334354,1048,985,-1772
7.344122,949,1494,-1208
7.353890,778,1787,-1041
7.363658,591,1689,-1395
7.373658,426,1403,-1595
7.383426,242,1303,-1624
7.393194,124,1330,-1463
7.402962,99,1323,-1238
7.412731,87,1273,-1031
7.422731,28,1185,-1097
7.432499,58,1073,-1041
7.442267,12,1278,-615
7.452004,92,1249,-843
7.461772,955,653,-245
7.471772,1605,612,987
7.481540,1289,969,51
7.491308,1064,598,-1261
7.501076,1326,442,-1611
7.510845,1503,1431,-874
7.520845,1233,1442,1371
7.530613,949,994,1508
7.540381,894,1737,-581
7.549811,858,2101,-1454
7.559945,915,1599,-1490
7.569713,1008,796,-1695
7.579713,998,469,-1724
7.589481,921,678,-1445
7.599249,857,523,-791
7.609017,889,480,105
7.618785,890,1024,-54
7.628785,799,1294,-956
7.638553,1062,790,-1093
7.648321,1551,426,-745
7.658089,1681,801,-434
7.667857,1571,1058,-379
7.677857,1524,855,-608
7.687626,1765,371,-986
7.697394,1930,305,-1291
7.707162,1858,760,-981
7.716930,2014,835,-768
7.726930,1992,844,-893
7.736698,1649,1058,-825
7.746466,1223,1005,-1688
7.756234,819,796,-2075
7.765972,796,962,-1083
7.775972,892,1128,-924
7.785740,990,1087,-1061
7.795508,1192,1115,-831
7.805276,1239,1098,-791
7.815044,1280,1049,-797
7.825044,1367,1051,-834
7.834812,1280,1107,-852
7.844580,1281,1133,-908
7.854348,1458,1096,-941
7.864116,1599,987,-881
7.874116,1678,855,-868
7.883854,1692,830,-863
7.893622,1767,876,-808
7.903390,1792,855,-693
7.913158,1715,865,-593
7.923158,1762,1005,-586
7.932926,1740,1158,-563
7.942694,1469,1231,-508
7.952462,1201,1262,-324
7.962230,1465,1376,-302
7.972230,1799,1465,-502
7.981998,1414,1419,-299
7.991766,1026,1451,41
8.001534,1032,1624,189
8.011272,1003,1776,205
8.021272,962,1871,7
8.031040,967,1949,-143
8.040808,1001,1971,-109
8.050576,1062,1865,-36
8.060344,998,1628,119
8.070344,967,1487,167
8.080112,1130,1590,-65
8.089880,1142,1574,-125
8.099648,1049,1424,-17
8.109416,1076,1458,-13
8.119416,1046,1533,26
8.129184,999,1585,12
8.138922,1053,1651,-122
8.148690,1157,1637,-215
8.158458,1235,1599,-247
8.168458,1233,1573,-268
8.178226,1217,1533,-277
8.187994,1214,1523,-256
8.197762,1205,1523,-222
8.207530,1207,1510,-177
8.217530,1187,1508,-145
8.227298,1112,1537,-149
8.237066,1064,1615,-152
8.246835,1049,1690,-113
8.256603,998,1724,-63
8.266603,969,1728,-38
8.276371,987,1708,3
8.286108,971,1687,19
8.295907,960,1649,3
8.305644,969,1635,-4
8.315644,935,1703,-38
8.325412,928,1739,-59
8.335180,965,1685,-52
8.344949,965,1624,-47
8.354717,926,1623,-47
8.364717,903,1674,-70
8.374485,889,1739,-117
8.384253,889,1780,-138
8.394021,905,1765,-100
8.403789,867,1730,-27
8.413789,823,1708,21
8.423557,826,1715,10
8.433294,839,1792,-34
8.443063,865,1837,-79
8.452831,794,1846,-59
8.462831,662,1922,12
8.472599,724,1910,23
8.482367,805,1819,17
8.491738,787,1812,62
8.501565,814,1767,78
8.511391,790,1714,80
8.521188,728,1774,105
8.531014,730,1849,39
8.540810,717,1926,-45
8.550637,680,1951,-27
8.560464,687,1894,48
8.570260,623,1885,119
8.580086,658,1867,146
8.589883,764,1942,298
8.599709,655,2072,312
8.609536,633,2028,57
8.619332,710,1989,-2
8.629159,792,2010,35
8.638955,828,1946,51
8.648782,669,1828,157
8.658578,612,1860,164
8.668404,708,1967,69
8.678231,696,2015,57
8.688027,658,2033,49
8.697854,682,1999,-22
8.707650,673,1960,-49
8.717477,676,1919,-70
8.727273,619,1906,-4
8.737099,596,1969,5
8.746896,671,2060,-152
8.756722,608,2087,-147
8.766518,478,2080,-68
8.776345,417,2037,-42
8.786141,533,1980,-81
8.795968,601,2097,-79
8.805764,453,2178,-43
8.815591,399,2176,-142
8.825387,373,2217,-186
8.835213,299,2171,-190
8.845010,280,2131,-249
8.854836,208,2165,-261
8.864632,99,2192,-247
8.874459,41,2167,-218
8.884255,-11,2046,-143
8.894082,-2,1960,-102
8.903878,-68,1926,-122
8.913705,-238,1889,-145
8.923501,-177,2092,-306
8.933327,-100,2294,-592
8.943154,-188,2251,-708
8.952950,-209,2130,-606
8.962777,-211,1922,-479
8.972573,-229,1814,-450
8.982400,-213,1890,-513
8.992196,-204,1971,-570
9.002023,-204,1987,-599
9.011819,-184,1962,-586
9.021645,-174,1931,-520
9.031441,-181,1944,-493
9.041268,-168,1987,-533
9.051064,-131,1985,-550
; 9.051 stopping logging: shutdown: switched off
