;Title, http://www.gcdataconcepts.com, x16-1d, ADXL345
;Version, 1877, Build date, Jan  8 2020,  SN:CCDC4016ECDDBE3
;Start_time, 2022-11-15, 18:36:23.260
;Uptime, 5,sec,  Vbat, 1424, mv, EOL, 1100, mv
;SampleRate, 50,Hz
;Deadband, 0, counts
;DeadbandTimeout, 0.000,sec
;Time, Ax, Ay, Az
0.327046,1,19,-2025
0.347046,167,-177,-2020
0.366580,289,-317,-2031
0.386083,87,-72,-2052
0.405617,-47,-79,-2479
0.425151,-72,1,-2714
0.444684,87,451,-2395
0.464187,230,424,-3147
0.483721,24,-170,-2945
0.503255,237,-418,-427
0.523255,803,199,1467
0.542789,994,-350,173
0.562292,1115,-1525,-4023
0.581825,967,-847,-3461
0.601359,344,-175,455
0.620893,-383,282,-666
0.640426,148,287,-2402
0.659930,-56,264,-1349
0.679463,-2504,1833,-1184
0.699463,-1809,1117,-2431
0.718997,257,-463,-2663
0.740237,-40,46,-1986
0.758092,-42,55,-1998
0.777626,117,-129,-2075
0.797160,8,10,-1988
0.816663,64,-50,-2047
0.836197,37,-34,-2031
0.855730,19,-17,-2023
0.875264,33,-40,-2034
0.895264,41,-34,-2023
0.914767,48,-27,-2032
0.934301,44,-27,-2047
0.953835,41,-33,-2029
0.973338,39,-34,-2022
0.992872,35,-31,-2016
1.12405,37,-36,-2018
1.31908,37,-29,-2041
1.51442,35,-24,-2031
1.71442,39,-25,-2023
1.90976,41,-25,-2041
1.110479,41,-25,-2031
1.130013,41,-31,-2025
1.149546,33,-33,-2036
1.169080,33,-25,-2025
1.188583,44,-36,-2022
1.208117,32,-9,-2015
1.227651,37,-40,-2040
1.247651,78,-136,-2029
1.267184,76,-59,-1966
1.286687,89,10,-2007
1.306221,89,-24,-2034
1.325755,-13,-9,-2016
1.345258,-29,-8,-2040
1.364792,71,-11,-2031
1.384325,80,3,-2025
1.403859,32,-17,-2038
1.423859,96,-68,-1984
1.443362,83,-18,-2059
1.462896,-70,49,-2163
1.482430,-27,-15,-2047
1.501963,69,-38,-2006
1.521467,37,-18,-2036
1.541000,21,-24,-2018
1.560534,19,-11,-2031
1.580068,32,-22,-2031
1.600068,39,-31,-2025
1.619571,46,-25,-2048
1.639104,55,-24,-2016
1.658638,37,-13,-1993
1.678141,37,-24,-2034
1.697675,42,-45,-2056
1.717209,39,-11,-2065
1.736712,51,48,-2068
1.756246,55,30,-2115
1.776246,53,-31,-2223
1.795779,62,-25,-2336
1.815282,94,-17,-2450
1.834816,142,-113,-2382
1.854350,226,-161,-2304
1.873853,419,-90,-2216
1.893387,569,-125,-1325
1.912920,551,57,-816
1.932424,599,198,-1607
1.952424,694,-165,-2107
1.971957,669,-111,-1759
1.991491,649,119,-1499
2.11025,651,85,-2113
2.30528,607,139,-2448
2.50061,621,-11,-1940
2.69595,637,-99,-1884
2.89129,617,-18,-1991
2.108632,615,0,-1882
2.128632,623,-4,-1902
2.148166,635,-67,-1943
2.167699,630,-56,-1941
2.187233,619,-17,-1940
2.206767,617,-8,-1952
2.226301,619,3,-1931
2.245804,619,-34,-1898
2.265337,603,-42,-1841
2.284871,624,-17,-1822
2.304871,630,-11,-1868
2.324405,566,30,-1815
2.343908,530,41,-1838
2.363442,510,-27,-1943
2.382975,439,-74,-1925
2.402509,373,17,-1895
2.422012,330,80,-1859
2.441546,241,-31,-1909
2.461080,144,-58,-2079
2.481080,92,-74,-2261
2.500613,14,-84,-2541
2.520147,-6,-36,-2402
2.539650,58,-138,-1932
2.559184,69,-65,-1988
2.578717,110,53,-2131
2.598251,166,-22,-2013
2.617785,149,17,-2154
2.637288,99,-6,-2388
2.657288,49,-134,-2404
2.676822,28,-102,-2400
2.696355,14,-58,-2327
2.715889,-79,-177,-2191
2.735268,-229,-306,-2175
2.754985,-311,-309,-2229
2.774518,-267,-206,-2220
2.794052,-117,-63,-2072
2.813555,-63,-31,-1840
2.833089,-122,-92,-1686
2.853089,-142,-90,-1668
2.872623,-149,-65,-1695
2.892156,-147,-81,-1706
2.911659,-170,-102,-1727
2.931193,-252,-122,-1761
2.950727,-215,-83,-1890
2.970260,-138,-31,-2079
2.989764,-209,-154,-2136
3.9297,-254,-293,-2125
3.29297,-195,-274,-2095
3.48831,-149,-215,-2032
3.68365,-142,-159,-2029
3.87898,-140,-138,-1998
3.107402,-156,-163,-1932
3.126935,-154,-150,-1927
3.146469,-127,-67,-1929
3.166003,-142,-40,-1950
3.185506,-188,-142,-1995
3.205506,-215,-200,-1936
3.225040,-174,-136,-1838
3.244573,-125,-131,-1829
3.264107,-122,-261,-1890
3.283641,-117,-352,-1950
3.303144,-102,-413,-1915
3.322677,-83,-570,-1850
3.342211,-81,-775,-1920
3.361745,-58,-916,-2023
3.381745,-13,-972,-2002
3.401248,-4,-970,-1781
3.420782,-8,-1047,-1557
3.440315,5,-1263,-1577
3.459849,7,-1377,-1575
3.479352,8,-1429,-1481
3.498886,41,-1579,-1315
3.518420,60,-1799,-1066
3.537953,33,-1945,-1093
3.557953,24,-2066,-1154
3.577487,124,-2463,-900
3.596990,164,-2061,-602
3.616524,51,-1425,-340
3.636058,67,-2048,-308
3.655591,162,-2279,-340
3.675094,144,-2007,-43
3.694628,108,-2232,142
3.714162,114,-2209,141
3.734162,119,-2029,248
3.753696,142,-2043,391
3.773229,196,-1952,544
3.792732,174,-1888,660
3.812266,98,-2004,699
3.831800,133,-1893,871
3.851333,174,-1563,1098
3.870837,157,-1520,1144
3.890370,180,-1602,1173
3.910370,201,-1502,1317
3.929904,212,-1356,1449
3.949407,219,-1311,1453
3.968941,166,-1332,1494
3.988475,112,-1081,1676
4.8008,221,-1104,1701
4.27511,308,-1484,1608
4.47045,144,-1147,1690
4.66579,60,-765,1744
4.86579,135,-845,1751
4.106113,169,-761,1830
4.125616,178,-697,1864
4.145149,166,-706,1871
4.164683,133,-465,1867
4.184217,130,-227,1881
4.203720,189,-284,1976
4.223254,199,-268,2069
4.242787,157,-36,1972
4.262787,164,117,1781
4.282321,216,167,1639
4.301855,387,332,1681
4.321358,473,599,1978
4.340892,287,644,1921
4.360425,249,607,1640
4.379928,366,751,1723
4.399462,371,805,1826
4.418996,417,848,1844
4.438996,455,1010,1908
4.458530,383,1021,1885
4.478033,328,1001,1746
4.497566,312,1046,1555
4.517100,307,1083,1415
4.536634,321,1299,1319
4.556137,339,1492,1274
4.575671,307,1494,1276
4.595204,248,1585,1196
4.615204,230,1755,1083
4.634707,228,1790,1021
4.654241,198,1746,964
4.673775,153,1740,873
4.693278,141,1751,792
4.712812,178,1785,762
4.732007,187,1835,710
4.751907,119,1849,583
4.771441,67,1906,433
4.790975,78,1987,330
4.810975,62,1967,269
4.830508,37,1930,205
4.850042,55,1985,64
4.869545,26,2069,-108
4.889079,-4,2042,-213
4.908613,19,1971,-340
4.928116,-4,1939,-475
4.947649,-49,1860,-588
4.967183,-54,1817,-745
4.987183,-50,1864,-891
5.6686,-43,1833,-970
5.26220,-47,1785,-1041
5.45754,-67,1781,-1109
5.65287,-56,1662,-1149
5.84790,-38,1533,-1216
5.104324,-40,1521,-1349
5.123858,8,1533,-1450
5.143361,35,1505,-1404
5.163361,0,1506,-1349
5.182895,24,1399,-1372
5.202428,71,1110,-1454
5.221962,51,1231,-1407
5.241465,-40,1448,-1457
5.260999,-68,982,-1782
5.280533,-27,642,-1459
5.300036,-93,751,-1749
5.319570,-147,599,-2859
5.339570,-108,424,-2441
5.359103,-56,396,-1818
5.378637,33,128,-2002
5.398140,110,-215,-1934
5.417674,123,-234,-1831
5.437207,132,-268,-1938
5.456741,94,-329,-1516
5.476244,49,-368,-1406
5.495778,66,-1045,-2616
5.515778,30,-1356,-2607
5.535312,19,-984,-1704
5.554845,51,-1049,-1854
5.574349,60,-1104,-1904
5.593882,110,-1066,-1745
5.613416,178,-1332,-1740
5.632919,167,-1391,-1272
5.652453,198,-1365,-940
5.671987,323,-1749,-1372
5.691987,294,-1822,-1440
5.711520,260,-1599,-1045
5.731023,369,-1779,-891
5.750557,294,-1963,-813
5.770091,257,-2073,-572
5.789594,649,-2543,169
5.809128,364,-2452,1132
5.828661,-352,-1770,605
5.848195,442,-2047,-154
5.868195,1062,-1777,1281
5.887698,439,-763,2172
5.907232,442,-636,1598
5.926766,541,-715,1464
5.946299,501,-840,1605
5.965802,814,-838,1851
5.985336,726,-550,2010
6.4870,492,-374,2046
6.24404,539,-336,2056
6.44404,558,-309,1942
6.63907,433,-154,1871
6.83440,246,42,1880
6.102974,196,182,1953
6.122508,294,312,1951
6.142011,280,364,1944
6.161545,258,433,1892
6.181078,308,635,1746
6.200612,178,717,1701
6.220612,73,685,1730
6.240146,67,807,1689
6.259649,0,914,1453
6.279183,248,1185,1449
6.298686,416,1630,1631
6.318219,99,1610,1392
6.337753,0,1580,1185
6.357287,35,1728,1192
6.376790,-52,1660,1019
6.396790,-36,1706,839
6.416324,-42,1865,748
6.435857,-88,1874,665
6.455361,-111,1864,528
6.474894,-174,1921,312
6.494428,-193,1940,164
6.513962,-200,1985,73
6.533465,-233,2019,-34
6.552999,-233,1917,-122
6.572999,-242,1874,-304
6.592532,-252,1912,-520
6.612035,-243,1914,-593
6.631569,-234,1892,-629
6.651103,-179,1876,-774
6.670636,-104,1831,-911
6.690170,-134,1505,-1022
6.709673,32,1630,-1186
6.728869,242,2119,-1197
6.748769,94,1751,-1247
6.768769,74,1424,-1406
6.788302,141,1560,-1382
6.807836,48,1449,-1368
6.827339,28,1278,-1441
6.846873,51,1280,-1506
6.866407,44,1328,-1575
6.885940,32,1281,-1602
6.905444,-2,1353,-1507
6.924977,19,1298,-1393
6.944977,137,1074,-1404
6.964511,58,1271,-1313
6.984045,-142,1344,-1499
7.3548,-156,946,-1490
7.23082,-236,796,-899
7.42615,-436,723,-2559
7.62149,-433,474,-3841
7.81652,-268,428,-2011
7.101186,-267,405,-1556
7.121186,-286,317,-2152
7.140719,-172,123,-1973
7.160223,-59,-322,-1975
7.179756,48,-584,-1913
7.199290,73,-608,-1740
7.218824,64,-699,-1636
7.238357,101,-736,-1609
7.257861,92,-741,-1724
7.277394,3,-1058,-1745
7.297394,-33,-1215,-1677
7.316928,-20,-1236,-2068
7.336462,-118,-1447,-2273
7.355965,-163,-1459,-1725
7.375499,-111,-1377,-1329
7.395032,-75,-1288,-1420
7.414566,-2,-1457,-1482
7.434100,14,-1699,-1204
7.453633,3,-1700,-941
7.473633,12,-1865,-883
7.493136,44,-1959,-838
7.512670,153,-1884,-790
7.532204,207,-2079,-658
7.551738,166,-2313,-434
7.571241,119,-2241,-204
7.590774,92,-2143,28
7.610278,103,-2159,266
7.629811,123,-1993,442
7.649811,180,-1632,496
7.669345,294,-1629,678
7.688848,358,-1891,919
7.708382,310,-1838,980
7.727915,192,-1684,1083
7.747419,142,-1590,1192
7.766952,194,-1506,1258
7.786486,185,-1454,1448
7.805989,164,-1336,1596
7.825989,169,-1216,1617
7.845523,108,-1156,1694
7.865057,49,-1099,1785
7.884590,30,-929,1869
7.904093,35,-654,1951
7.923627,28,-420,1892
7.943161,-24,-265,1837
7.962695,-34,-117,1897
7.982198,-31,3,1910
8.2198,-93,121,1855
8.21731,-102,223,1853
8.41265,-68,307,1855
8.60768,-61,474,1862
8.80302,-79,549,1874
8.99836,-117,566,1799
8.119369,-74,678,1765
8.138873,-38,687,1862
8.158406,-27,649,1897
8.178406,5,708,1830
8.197940,32,712,1883
8.217474,58,624,1980
8.236977,35,551,1931
8.256510,-52,535,1851
8.276044,-131,474,1799
8.295547,-152,360,1828
8.315081,-170,339,1699
8.334615,-252,341,1374
8.354615,-495,435,1624
8.374148,-808,473,1996
8.393652,-988,253,1692
8.413185,-1152,33,1760
8.432719,-1325,-133,2119
8.452222,-1463,-111,1817
8.471756,-1420,-81,1431
8.491290,-1216,-200,1306
8.510823,-1336,-168,1324
8.530823,-1604,8,1348
8.550326,-1600,39,1155
8.569860,-1347,-422,1114
8.589394,-1493,-436,1114
8.608927,-1948,10,842
8.628431,-1866,-211,783
8.647964,-1777,-475,932
8.667498,-1898,-509,819
8.687001,-1800,-538,749
8.707001,-1747,-556,805
8.726535,-2068,-556,24
8.745700,-2186,-361,-68
8.765630,-2140,-342,939
8.785164,-2332,-249,642
8.804667,-1934,-415,144
8.824201,-1529,-979,242
8.843735,-1920,-531,357
8.863268,-2041,46,599
8.882771,-1654,49,257
8.902771,-1727,216,194
8.922305,-2182,133,783
8.941839,-2032,-140,596
8.961342,-1816,-152,242
8.980876,-2084,-97,407
9.409,-2079,-202,303
9.19913,-1997,210,394
9.39446,-2211,762,503
9.58949,-2023,298,-497
9.78949,-1827,-104,-1040
9.98483,-2338,-118,-631
9.118017,-2548,-756,-1031
9.137520,-2584,-227,-1359
9.157054,-2609,1082,-95
9.176587,-1925,419,239
9.196091,-1407,-306,-1265
9.215624,-1234,73,-1643
9.235127,-1050,-20,-1352
9.255127,-918,-63,-1716
9.274661,-904,78,-2338
9.294195,-1159,-818,-2204
9.313698,-1018,-1002,-1722
9.333232,-613,-199,-2213
9.352765,-467,-609,-2559
9.372269,-317,-1090,-2140
9.391802,-97,-747,-1568
9.411305,37,-325,-1549
9.431305,116,-133,-1804
9.450839,316,-270,-1690
9.470373,466,-408,-1657
9.489906,532,-372,-1970
9.509410,553,-374,-2148
9.528943,512,-358,-2034
9.548477,591,-349,-2143
9.567980,632,-304,-2279
9.587514,730,-79,-2234
9.607514,932,-72,-2122
9.627048,840,-174,-1804
9.646551,940,-65,-1666
9.666084,1331,-77,-1686
9.685618,1494,-322,-1490
9.705152,1558,-377,-1068
9.724655,1589,-127,-474
9.744189,1826,-79,-245
9.763692,2080,-117,-524
9.783692,1783,162,-600
9.803226,1674,233,-481
9.822759,2099,-6,-150
9.842262,2340,-99,557
9.861796,2149,-195,592
9.881299,1972,-234,198
9.900833,2030,-249,357
9.920336,1755,-349,424
9.939870,1549,-240,474
9.959870,1794,-111,1064
9.979404,1758,119,1251
9.998907,1590,219,764
10.18440,1560,-229,824
10.37974,1440,-345,1555
10.57477,1389,-193,1864
10.77011,1296,-292,1392
10.96514,1060,-517,1189
10.116048,1112,-550,1724
10.136048,1406,-333,2096
10.155551,1074,-645,1660
10.175085,640,-704,1306
10.194618,862,-150,1669
10.214152,912,-111,1894
10.233655,749,-279,2005
10.253189,655,-292,2112
10.272723,571,-284,2051
10.292226,435,-224,2096
10.312226,203,-186,2022
10.331759,114,-227,1823
10.351293,58,-249,1865
10.370827,-27,-284,1960
10.390330,-179,-300,1896
10.409864,-397,-234,1864
10.429397,-492,-243,1855
10.448901,-590,-252,1823
10.468434,-631,-263,1821
10.488434,-615,-322,1780
10.507968,-729,-297,1701
10.527471,-859,-272,1589
10.547005,-961,-261,1526
10.566539,-1045,-106,1564
10.586042,-1102,142,1444
10.605575,-1204,294,1069
10.625109,-1522,241,1021
10.644612,-1973,10,1451
10.664612,-2122,-349,1351
10.684146,-2040,-363,710
10.703680,-2052,42,348
10.723213,-2125,117,223
10.742717,-2157,-8,139
10.762250,-2106,16,58
10.781753,-2077,5,-25
10.801287,-2059,30,-61
10.820821,-2022,-2,5
10.840821,-1966,-22,-83
10.860324,-1932,108,-493
10.879858,-2052,21,-809
10.899391,-2070,-36,-350
10.918894,-1873,89,-150
10.938428,-1832,207,-1327
10.957931,-1959,233,-2009
10.977465,-2182,26,-1779
10.996968,-2450,251,-1654
11.16968,-2152,349,-1407
11.36502,-1395,-104,-1200
11.56005,-958,3,-1154
11.75539,-738,217,-1088
11.95072,-518,157,-1509
11.114576,-477,237,-2166
11.134109,-495,224,-2090
11.153643,-454,21,-1756
11.173146,-463,-8,-1822
11.193146,-543,366,-2120
11.212680,-527,405,-2006
11.232183,-454,171,-1897
11.251717,-486,173,-2129
11.271220,-367,174,-1909
11.290754,-159,248,-2027
11.310287,-81,76,-2336
11.329790,49,-181,-1909
11.349324,135,-61,-1816
11.369324,155,58,-2136
11.388858,249,12,-2063
11.408392,296,10,-1927
11.427895,314,87,-2177
11.447428,403,99,-2254
11.466962,466,116,-1916
11.486465,517,130,-1907
11.505999,583,78,-2129
11.525533,642,24,-2041
11.545533,780,-22,-1799
11.565036,876,-45,-1713
11.584570,917,-4,-1747
11.604103,1040,74,-1788
11.623606,1119,105,-1890
11.643140,1171,123,-1984
11.662643,1278,174,-2036
11.682177,1253,255,-1963
11.701711,1198,323,-1572
11.721711,1339,294,-1191
11.742890,1474,312,-877
11.760806,1530,280,-309
11.780309,1749,62,10
11.799843,1906,-17,74
11.819346,1967,-125,324
11.838880,2319,-236,141
11.858383,2326,124,85
11.877917,2119,137,449
11.897450,1701,-52,-440
11.917450,1260,310,-1018
11.936954,1655,153,287
11.956487,1133,-374,885
11.976021,382,-509,1337
11.995524,649,-415,3249
12.15058,703,-74,3551
12.34561,655,10,2053
12.54095,657,-147,1573
12.73598,626,-83,1737
12.93598,574,-115,1851
12.113132,476,-236,2024
12.132665,435,-304,2010
12.152168,416,-325,1890
12.171702,426,-222,1869
12.191236,433,-188,2022
12.210739,517,-47,2031
12.230273,705,148,1696
12.249776,737,46,1681
12.269776,694,8,1914
12.289310,740,58,1853
12.308813,717,-38,1856
12.328346,667,-45,1851
12.347880,649,-13,1771
12.367383,607,-59,1826
12.386917,598,-59,1844
12.406420,580,-84,1851
12.425954,551,-106,1887
12.445954,555,-127,1914
12.465457,435,-375,1730
12.484991,378,-406,1630
12.504524,437,-134,1908
12.524028,337,-47,1897
12.543561,194,-56,1897
12.563095,46,-36,2171
12.582598,-113,3,2076
12.602132,-292,-25,1955
12.622132,-456,-88,1985
12.641635,-556,-56,1799
12.661169,-752,-33,1606
12.680702,-997,-18,1583
12.700206,-1174,26,1539
12.719739,-1432,0,1424
12.739242,-1745,-43,1105
12.758776,-1882,-92,621
12.778279,-2034,-108,407
12.798279,-2336,-27,337
12.817813,-2247,-88,83
12.837316,-1943,-177,-215
12.856850,-1997,-59,-484
12.876384,-2047,19,-922
12.895887,-1779,0,-716
12.915420,-1575,-54,-738
12.934954,-1772,-77,-2202
12.954457,-1672,-11,-2045
12.974457,-1279,23,-1200
12.993991,-1329,185,-2040
13.13494,-975,160,-1754
13.33028,-309,-61,-1304
13.52561,-249,73,-2143
13.72065,-218,160,-2288
13.91598,-86,55,-2263
13.111102,-54,-15,-2043
13.130635,403,33,-1504
13.150635,733,-56,-1831
13.170169,480,-238,-1948
13.189672,491,-165,-1800
13.209206,607,-104,-1986
13.228709,505,-129,-1925
13.248243,499,-159,-1866
13.267746,507,-174,-1966
13.287249,471,-183,-1977
13.306783,437,-184,-1972
13.326783,360,-184,-2002
13.346286,382,-311,-1909
13.365820,460,-395,-1927
13.385323,426,-349,-2116
13.404856,394,-311,-2075
13.424390,366,-308,-1940
13.443893,324,-384,-1898
13.463427,294,-409,-1943
13.482930,283,-386,-1998
13.502930,332,-433,-1979
13.522464,246,-431,-2086
13.541998,201,-463,-2136
13.561501,382,-563,-1986
13.581034,407,-531,-1972
13.600568,323,-452,-1984
13.620071,342,-467,-1913
13.639605,344,-431,-1913
13.659108,332,-322,-1893
13.679108,333,-322,-1863
13.698642,310,-418,-1920
13.718176,292,-427,-1956
13.737920,291,-379,-1936
13.757271,283,-367,-1954
13.776774,278,-367,-1991
13.796308,273,-365,-1986
13.815842,246,-345,-1973
13.835375,219,-322,-1988
13.854878,219,-315,-2032
13.874878,208,-343,-2073
13.894412,167,-386,-2032
13.913915,157,-383,-1979
13.933449,178,-367,-2007
13.952983,187,-345,-2027
13.972516,187,-329,-2018
13.992019,191,-358,-2027
14.11553,174,-383,-2016
14.31087,162,-377,-2011
14.51087,157,-358,-2027
14.70590,151,-329,-2023
14.90124,146,-329,-1988
14.109657,153,-356,-1988
14.129161,173,-363,-2000
14.148694,171,-370,-1959
14.168228,153,-350,-1993
14.187762,135,-324,-2041
14.207265,148,-363,-2020
14.227265,151,-361,-2025
14.246799,130,-347,-2006
14.266302,133,-365,-2009
14.285835,146,-356,-2082
14.305339,153,-358,-2075
14.324872,149,-336,-2004
14.344375,126,-293,-1982
14.363909,108,-297,-2000
14.383443,116,-290,-2009
14.403443,124,-236,-2013
14.422946,117,-188,-2052
14.442480,110,-188,-2066
14.461983,85,-136,-1977
14.481517,30,-40,-1925
14.501020,12,-27,-1997
14.520553,41,-54,-2050
14.540087,41,-61,-2016
14.559590,12,-47,-2000
14.579590,12,-43,-2016
14.599124,32,-49,-2027
14.618658,30,-34,-2059
14.638161,19,-40,-2043
14.657695,28,-56,-2015
14.677198,42,-65,-2034
14.696731,39,-77,-2031
14.716265,33,-74,-2000
14.735768,46,-67,-2007
14.755768,55,-70,-2048
14.775302,57,-65,-2057
14.794836,48,-70,-2041
14.814339,42,-59,-2048
14.833873,49,-50,-2063
14.853376,44,-77,-2045
14.872909,44,-67,-2031
14.892443,57,-61,-2020
14.911946,51,-90,-2016
14.931946,51,-109,-2029
14.951480,58,-109,-2013
14.971014,51,-36,-2056
14.990517,62,-45,-2048
15.10051,89,-125,-1948
15.29584,101,-88,-2079
15.49087,153,-99,-2193
15.68621,208,-120,-2173
15.88124,230,-36,-2193
15.108124,314,7,-2056
15.127658,430,-8,-1982
15.147192,501,3,-2047
15.166695,601,0,-1952
15.186228,737,-20,-1895
15.205732,885,-29,-2036
15.225265,982,-36,-1906
15.244799,1058,28,-1495
15.264302,1289,64,-1418
15.284302,1430,7,-1493
15.303805,1490,-2,-1374
15.323339,1719,-38,-1536
15.342873,1387,21,-1715
15.362406,1040,262,-1159
15.381910,1762,244,-615
15.401443,2128,42,-479
15.420947,1753,55,-249
15.440480,1781,92,21
15.460480,1881,-29,335
15.479983,1874,-184,699
15.499517,1814,-209,887
15.519051,1465,-84,1060
15.538554,2103,-242,1490
15.558088,2437,-536,1017
15.577591,944,-195,57
15.597124,371,58,919
15.616628,601,-293,2149
15.636628,224,-388,2328
15.656161,-131,-324,2447
15.675695,-388,-397,2346
15.695198,-568,-386,2283
15.714732,-600,-388,2210
15.733897,-477,-422,1780
15.753827,-409,-404,1701
15.773331,-470,-409,1847
15.792864,-481,-443,1890
15.812367,-447,-408,1839
15.832367,-418,-363,1728
15.851901,-383,-333,1914
15.871404,-352,-258,2019
15.890938,-336,-211,1901
15.910441,-324,-220,1928
15.929975,-342,-252,1908
15.949478,-388,-274,1940
15.969012,-404,-263,2046
15.988545,-390,-247,1985
16.8545,-377,-236,1919
16.28049,-356,-204,1944
16.47582,-300,-152,1924
16.67085,-261,-120,1869
16.86619,-261,-106,1887
16.106122,-284,-67,2012
16.125656,-277,-40,1994
16.145190,-190,-84,1685
16.164693,-220,-88,1640
16.184693,-381,-6,1860
16.204227,-445,49,1774
16.223730,-509,17,1619
16.243263,-704,-68,1574
16.262767,-1025,-117,1506
16.282300,-1402,-120,1455
16.301834,-1699,-18,1435
16.321337,-1909,67,1378
16.340871,-2018,-77,1067
16.360871,-2027,-90,617
16.380374,-2102,128,424
16.399908,-2206,158,344
16.419411,-2165,76,121
16.438945,-2081,24,-145
16.458448,-2070,64,-354
16.477981,-2022,169,-506
16.497515,-1925,117,-677
16.517018,-1888,119,-575
16.537018,-1795,182,-447
16.556552,-1815,94,-1166
16.576055,-1918,139,-1706
16.595589,-1804,255,-1281
16.615092,-1759,178,-1143
16.634626,-1693,132,-1427
16.654159,-1418,160,-1459
16.673663,-1186,194,-1397
16.693196,-1056,241,-1436
16.713196,-1004,228,-1568
16.732699,-991,214,-1765
16.752233,-993,228,-1779
16.771767,-986,249,-1752
16.791270,-933,194,-1866
16.810804,-877,157,-1827
16.830307,-827,239,-1816
16.849841,-725,248,-1970
16.869374,-611,235,-2025
16.889374,-531,337,-1932
16.908877,-338,348,-1740
16.928411,-68,151,-1738
16.947914,-40,128,-1927
16.967448,-131,260,-1997
16.986982,-109,262,-2048
17.6485,-99,249,-2077
17.26019,-125,241,-2009
17.45522,-133,228,-2004
17.65522,-129,232,-1993
17.85055,-142,224,-1981
17.104589,-143,224,-2015
17.124092,-136,237,-2022
17.143626,-150,251,-2006
17.163129,-142,235,-1943
17.182663,-136,226,-1965
17.202166,-152,237,-2036
17.221700,-158,248,-1995
17.241700,-172,244,-1988
17.261233,-174,242,-2013
17.280737,-172,257,-2009
17.300270,-172,253,-2034
17.319804,-156,258,-2048
17.339307,-158,269,-2016
17.358841,-159,232,-1986
17.378344,-145,226,-1984
17.397878,-154,249,-1995
17.417878,-170,257,-1997
17.437411,-175,274,-1993
17.456915,-167,257,-2011
17.476448,-165,246,-2011
17.495951,-177,271,-2000
17.515485,-172,262,-2015
17.535019,-168,266,-2004
17.554552,-170,280,-1986
17.574056,-167,269,-1977
17.594056,-161,271,-1968
17.613589,-170,274,-1991
17.633092,-184,271,-2011
17.652626,-183,283,-2002
17.672160,-184,280,-1997
17.691663,-184,251,-2006
17.711197,-181,271,-2015
17.730362,-174,282,-1998
17.750292,-170,246,-1966
17.769795,-175,258,-1977
17.789795,-177,274,-2002
17.809329,-177,271,-1995
17.828832,-175,273,-1977
17.848366,-167,260,-1991
17.867900,-168,276,-2022
17.887403,-177,287,-2006
17.906936,-179,262,-1979
17.926440,-175,260,-1993
17.945973,-177,273,-1997
17.965973,-177,271,-1986
17.985507,-170,258,-1990
18.5010,-167,253,-1982
18.24544,-168,251,-1991
18.44047,-172,264,-2007
18.63581,-181,282,-2006
18.83114,-184,276,-2000
18.102618,-175,267,-1997
18.122151,-172,280,-1991
18.142151,-172,269,-1986
18.161685,-167,249,-2004
18.181188,-170,276,-2006
18.200722,-181,292,-1979
18.220225,-179,271,-1993
18.239759,-172,271,-2004
18.259262,-174,278,-1990
18.278796,-172,274,-1995
18.298329,-172,285,-1988
18.318329,-183,292,-1998
18.337832,-184,276,-2007
18.357366,-190,289,-1982
18.376869,-192,294,-1981
18.396403,-174,264,-1991
18.415906,-175,264,-1986
18.435440,-186,282,-1997
18.454974,-186,294,-2007
18.474477,-186,291,-1995
18.494477,-184,292,-1979
18.514010,-183,312,-1982
18.533514,-172,287,-1988
18.553047,-167,267,-1986
18.572551,-177,294,-1993
18.592084,-179,283,-1988
18.611618,-175,285,-2009
18.631121,-179,310,-2020
18.650655,-172,289,-1956
18.670655,-120,283,-2047
18.690158,-86,237,-2197
18.709692,-124,94,-2118
18.729195,-102,1,-2009
18.748728,-20,16,-2009
18.768232,60,107,-1943
18.787765,96,246,-1875
18.807299,85,169,-1925
18.826802,114,-34,-2022
18.846802,105,10,-2109
18.866336,49,73,-2040
18.885839,10,117,-1838
18.905373,-63,216,-1802
18.924906,-92,182,-1975
18.944410,-102,224,-2095
18.963943,-68,185,-2129
18.983477,48,141,-1973
19.2980,78,264,-1750
19.22980,35,169,-1941
19.42514,-38,185,-2100
19.62017,-111,278,-1986
19.81551,-131,160,-2072
19.101084,-134,157,-2141
19.120588,-183,180,-2048
19.140121,-200,103,-1972
19.159655,-167,132,-1866
19.179158,-156,237,-1800
19.199158,-106,194,-1940
19.218692,-67,169,-2082
19.238226,-124,324,-2057
19.257729,-124,214,-2173
19.277262,-67,-79,-2334
19.296766,-175,-79,-2211
19.316299,-345,39,-2148
19.335802,-322,217,-2256
19.355336,-170,449,-2195
19.375336,-6,437,-2000
19.394870,155,283,-1809
19.414373,185,305,-1709
19.433907,74,387,-1786
19.453410,-11,467,-1902
19.472944,10,510,-2023
19.492447,76,403,-2013
19.511980,126,389,-1911
19.531484,242,391,-1966
19.551484,389,392,-1940
19.571017,376,439,-1772
19.590520,207,362,-1854
19.610054,91,214,-2231
19.629557,121,19,-2248
19.649091,158,110,-1965
19.668594,105,546,-1923
19.688128,126,639,-1941
19.707662,191,391,-1995
19.727662,224,307,-2041
19.746827,217,349,-1956
19.766757,183,335,-1922
19.786260,316,232,-2018
19.805794,185,149,-2165
19.825297,24,185,-2073
19.844831,374,226,-1854
19.864364,505,173,-1865
19.883868,214,107,-2023
19.903371,110,46,-2070
19.923371,373,41,-1890
19.942905,321,1,-1943
19.962438,130,-95,-2086
19.981941,303,-133,-1948
20.1475,251,-172,-1956
20.21009,176,-213,-1947
20.40512,267,-511,-1749
20.60046,116,-861,-1966
20.79549,42,-791,-2347
20.99549,232,-774,-1979
20.119082,316,-918,-1668
20.138616,283,-1009,-1995
20.158119,187,-1047,-2004
20.177653,182,-938,-1761
20.197187,316,-890,-1754
20.216690,244,-974,-1790
20.236224,149,-1000,-1815
20.255757,251,-934,-1866
20.275757,271,-890,-1829
20.295260,158,-861,-1804
20.314794,155,-793,-1906
20.334328,144,-733,-1988
20.353831,78,-688,-2043
20.373365,153,-668,-1998
20.392898,198,-600,-1884
20.412402,208,-518,-1957
20.431935,267,-534,-2025
20.451935,232,-509,-1927
20.471469,192,-425,-1900
20.490972,264,-399,-1963
20.510506,326,-367,-2007
20.530009,321,-327,-2038
20.549543,283,-333,-2022
20.569076,269,-338,-1952
20.588580,319,-302,-1929
20.608113,333,-277,-1948
20.628113,328,-267,-1986
20.647616,339,-252,-2034
20.667150,330,-249,-2029
20.686684,324,-242,-1984
20.706187,317,-229,-1966
20.725721,328,-222,-1988
20.745254,341,-234,-2002
20.764758,333,-245,-2002
20.784291,341,-234,-2006
20.804291,346,-236,-1990
20.823825,335,-238,-2000
20.843328,314,-227,-2034
20.862862,333,-243,-1993
20.882395,374,-254,-1977
20.901929,376,-238,-1975
20.921432,369,-233,-1934
20.940966,357,-231,-1982
20.960500,366,-236,-2011
20.980500,391,-258,-1997
21.003,366,-263,-2031
21.19537,398,-256,-2020
21.39070,417,-258,-1963
21.58604,396,-306,-1943
21.78107,494,-342,-1973
21.97641,512,-299,-2029
21.117175,421,-311,-2009
21.136678,476,-334,-1956
21.156678,574,-313,-2009
21.176211,494,-374,-1988
21.195745,474,-368,-1963
21.215248,657,-158,-2073
21.234782,689,-117,-2009
21.254316,853,-561,-1756
21.273849,1210,-824,-1700
21.293353,1198,-456,-1902
21.312886,1062,-234,-1848
21.332886,1128,-354,-1607
21.352389,1223,-254,-1729
21.371923,1265,-104,-1902
21.391457,1392,-179,-1697
21.410990,1514,-172,-1474
21.430494,1587,-20,-1386
21.450027,1565,74,-1459
21.469530,1260,92,-1529
21.489064,1439,21,-758
21.509064,2081,41,133
21.528567,2180,267,123
21.548101,2056,357,26
21.567635,1987,294,114
21.587138,1872,308,57
21.606672,1917,276,64
21.626205,1935,201,303
21.645708,1864,92,669
21.665242,1730,48,764
21.685242,1648,53,751
21.704776,1794,0,978
21.724279,1687,187,978
21.743475,1562,278,1069
21.763374,1630,126,1435
21.782908,1396,130,1430
21.802442,1176,146,1369
21.821945,1207,157,1303
21.841479,1280,223,1107
21.861012,1126,219,1421
21.881012,987,171,2065
21.900516,1119,148,2156
21.920049,1114,189,1830
21.939552,889,208,1703
21.959086,594,162,1840
21.978620,430,141,1855
21.998154,442,126,1619
22.17657,442,60,1674
22.37190,508,94,1776
22.57190,551,153,1651
22.76724,239,-2,2162
22.96227,-208,-31,2497
22.115761,-406,132,1997
22.135295,-458,169,1833
22.154798,-427,123,1869
22.174332,-245,180,1773
22.193835,-309,214,1808
22.213368,-674,1,1776
22.233368,-863,-38,1744
22.252872,-954,98,1785
22.272405,-1036,28,1780
22.291908,-993,76,1828
22.311442,-1052,164,1758
22.330976,-1149,123,1565
22.350479,-1195,267,1598
22.370013,-1486,339,1615
22.389546,-1588,199,1476
22.409546,-1509,182,1319
22.429050,-1625,208,1248
22.448583,-1424,376,1649
22.468117,-1025,344,1590
22.487620,-883,260,617
22.507154,-1172,757,348
22.526687,-1577,715,394
22.546191,-1427,307,-208
22.565724,-1599,469,-418
22.585724,-2841,423,-234
22.605228,-3230,192,-552
22.624761,-2370,224,-733
22.644295,-2100,267,-438
22.663798,-2172,112,-493
22.683332,-2068,-158,-772
22.702835,-2113,-240,-575
22.722369,-2204,-36,-383
22.741902,-2127,-9,-740
22.761902,-1845,-463,-868
22.781405,-1786,-734,-581
22.800939,-1950,-558,-383
22.820442,-1918,-206,-488
22.839976,-1840,-172,-700
22.859510,-1686,-756,-570
22.879013,-1477,-1036,-606
22.898547,-1743,-540,-643
22.918050,-2190,-392,-377
22.938050,-2168,-759,-583
22.957583,-1829,-811,-784
22.977117,-1675,-825,-609
22.996620,-2327,-1000,-615
23.16154,-2916,-1332,-816
23.35657,-2398,-1140,-522
23.55191,-1238,-565,-168
23.74694,-481,-745,-600
23.94228,-1249,-684,-463
23.114228,-2061,-231,241
23.133761,-1788,-474,130
23.153265,-1657,-1020,-281
23.172798,-1704,-1116,-447
23.192332,-1724,-995,-413
23.211835,-1757,-904,-402
23.231369,-1616,-990,-509
23.250903,-1532,-1313,-436
23.270406,-1863,-1241,-629
23.290406,-2138,-1265,-1040
23.309939,-1516,-1513,-1282
23.329473,-984,-1552,-1366
23.348976,-1352,-1543,-1231
23.368510,-1222,-1166,-1249
23.388013,-758,-1515,-640
23.407547,-816,-1936,-361
23.427081,-306,-1459,-788
23.446614,162,-1615,-431
23.466614,-450,-2184,-290
23.486117,-933,-2516,-167
23.505621,-820,-2288,-24
23.525154,-743,-1690,-320
23.544688,-693,-1638,10
23.564191,-624,-1579,260
23.583725,-640,-1332,-442
23.603228,-593,-1956,-666
23.622762,-411,-2320,-572
23.642762,-163,-1809,-1211
23.662295,-256,-1827,-1163
23.681799,-595,-1923,-654
23.701332,-517,-1713,-1163
23.720835,-225,-1479,-1668
23.740369,176,-1141,-1707
23.759903,187,-1240,-1700
23.779406,19,-1409,-1624
23.798940,419,-1291,-1638
23.818940,480,-1231,-1722
23.838473,423,-1206,-1952
23.857977,614,-1115,-2081
23.877510,462,-783,-1872
23.897013,144,-527,-1857
23.916547,124,-674,-1982
23.936081,389,-902,-1686
23.955614,480,-861,-1588
23.975118,430,-624,-1902
23.995118,444,-492,-2066
24.14651,305,-504,-2004
24.34155,89,-492,-1759
24.53688,108,-433,-1863
24.73222,246,-418,-2159
24.92725,258,-565,-1973
24.112259,253,-700,-1790
24.131792,314,-640,-1932
24.151296,339,-638,-1998
24.171296,346,-706,-1873
24.190829,337,-690,-1795
24.210332,244,-788,-1790
24.229866,299,-933,-1811
24.249400,514,-831,-1802
24.268934,514,-709,-1699
24.288437,389,-783,-1699
24.307970,307,-841,-1816
24.327504,266,-859,-1843
24.347504,310,-834,-1832
24.367007,269,-740,-1763
24.386541,203,-750,-1750
24.406075,210,-756,-1923
24.425578,91,-679,-1977
24.445112,83,-631,-2141
24.464615,155,-509,-2365
24.484148,99,-300,-2200
24.503652,112,-218,-2063
24.523652,123,-200,-2022
24.543185,219,-150,-1915
24.562719,346,-220,-2043
24.582222,301,-220,-2068
24.601756,273,-229,-2009
24.621290,289,-361,-2188
24.640793,273,-295,-2127
24.660326,376,-252,-1927
24.679860,491,-334,-2029
24.699860,314,-222,-2116
24.719363,219,-27,-2090
24.740542,380,74,-2072
24.758459,596,230,-1859
24.777992,762,303,-1793
24.797526,812,158,-1966
24.817029,1028,116,-2011
24.836563,1132,176,-1995
24.856097,1005,239,-1940
24.875600,1112,301,-1891
24.895600,1355,317,-1850
24.915134,1381,428,-1772
24.934637,1205,596,-1806
24.954170,1335,612,-1681
24.973704,1660,549,-1225
24.993238,1523,562,-811
25.12741,1308,585,-186
25.32275,1473,428,342
25.51808,1617,141,362
25.71808,1323,28,642
25.91311,1124,10,1014
25.110845,1651,-99,1219
25.130348,1826,-174,1399
25.149882,1139,-243,1617
25.169416,726,-406,1930
25.188919,624,-461,1853
25.208453,542,-383,1774
25.227986,664,-363,1817
25.247986,583,-367,1673
25.267489,499,-327,1642
25.287023,585,-277,1794
25.306526,326,-347,2189
25.326060,67,-422,2406
25.345594,160,-342,2121
25.365097,153,-352,1815
25.384631,17,-390,1749
25.404134,151,-415,1628
25.424134,51,-567,1639
25.443667,-442,-563,2010
25.463201,-611,-359,1922
25.482704,-818,-249,1594
25.502238,-961,-304,1760
25.521772,-677,-368,1878
25.541275,-716,-349,1799
25.560809,-1043,-468,1719
25.580312,-1154,-359,1483
25.600312,-1158,74,1328
25.619845,-1816,-267,1255
25.639349,-2588,-538,892
25.658882,-2168,-86,537
25.678385,-1784,71,294
25.697919,-2152,217,37
25.717422,-2200,191,-133
25.736956,-2127,149,-463
25.756459,-2170,466,-845
25.776459,-1977,499,-963
25.795993,-1724,437,-952
25.815527,-1515,640,-1118
25.835030,-1225,987,-1509
25.854563,-936,1153,-1577
25.874067,-831,749,-1529
25.893600,-893,790,-1973
25.913103,-106,1642,-1590
25.932637,1367,1517,-399
25.952637,1026,1169,-459
25.972140,-45,1553,-1175
25.991674,196,1749,-1290
26.11177,303,1919,-1204
26.30711,30,1996,-1225
26.50214,173,2097,-1241
26.69748,296,2126,-1034
26.89251,-36,1614,-1025
26.108785,-170,1355,-1334
26.128785,-56,1556,-1175
26.148288,-209,1571,-943
26.167822,-263,1389,-1211
26.187325,-93,1403,-1466
26.206858,1,1494,-1536
26.226362,1,1269,-1449
26.245895,39,1037,-1354
26.265398,92,1065,-1466
26.284932,285,1194,-1441
26.304932,498,1240,-1474
26.324435,444,1105,-1763
26.343969,346,930,-1793
26.363472,339,846,-1763
26.383006,124,830,-1947
26.402509,-188,960,-2000
26.422043,83,1026,-2029
26.441546,582,733,-2086
26.461080,660,485,-1638
26.481080,667,153,-1420
26.500583,873,-522,-2057
26.520116,1203,-599,-2304
26.539620,1228,-281,-2081
26.559153,935,-165,-2086
26.578656,848,114,-1966
26.598190,1148,249,-1727
26.617724,1701,89,-1661
26.637227,2064,-18,-1616
26.657227,1865,210,-1286
26.676761,1476,592,-906
26.696264,1549,453,-877
26.715798,1792,58,-711
26.735573,1917,-40,-109
26.754893,1914,-17,316
26.774396,1603,14,364
26.793930,1439,42,312
26.813433,1417,217,610
26.832967,1531,167,1182
26.852967,1858,-165,1267
26.872470,1674,-174,1446
26.892004,1346,-343,1921
26.911507,1431,-588,1612
26.931040,1476,-472,1115
26.950574,1403,-418,1199
26.970077,1340,-456,1331
26.989611,1298,-433,1376
27.9114,1264,-393,1430
27.29114,1165,-356,1176
27.48648,1360,-104,982
27.68151,1460,-65,1767
27.87685,1051,-636,2465
27.107188,973,-786,1944
27.126722,1010,-500,1449
27.146255,653,-559,1521
27.165759,567,-627,1567
27.185292,873,-586,1637
27.205292,871,-645,1753
27.224795,599,-679,1817
27.244329,615,-545,1881
27.263863,680,-684,1669
27.283366,396,-697,1660
27.302900,-8,-59,2014
27.322403,-86,8,1922
27.341936,-243,-440,1939
27.361470,-477,-688,2121
27.381470,341,-824,2085
27.400973,498,-583,2069
27.420507,-1190,-331,1874
27.440041,-1643,-358,1931
27.459544,-1166,-224,2030
27.479078,-1438,91,1558
27.498611,-631,-192,1615
27.518114,244,-681,2014
27.537648,-586,-209,1728
27.557648,-1129,192,1731
27.577151,-966,3,1964
27.596685,-1282,82,1812
27.616219,-1379,257,1628
27.635722,-1147,194,1476
27.655256,-1075,-63,1598
27.674789,-1058,-61,1626
27.694323,-1084,153,1401
27.713826,-1213,285,1383
27.733826,-1472,474,1381
27.753360,-1570,569,1253
27.772894,-1559,708,1042
27.792397,-1638,815,883
27.811930,-1661,633,853
27.831464,-1666,585,785
27.850967,-1675,715,687
27.870501,-1545,717,548
27.890004,-1425,715,371
27.910004,-1529,857,278
27.929538,-1650,999,92
27.949072,-1479,1281,-256
27.968575,-1404,1674,-288
27.988108,-1647,1730,-127
28.7612,-1657,1665,-292
28.27145,-1459,1642,-436
28.46648,-1352,1573,-354
28.66182,-1297,1531,-440
28.86182,-1288,1528,-547
28.105716,-1200,1610,-488
28.125219,-984,1533,-527
28.144753,-993,1633,-288
28.164256,-1136,1997,-2
28.183790,-1045,1921,-283
28.203323,-891,1696,-411
28.222826,-761,1717,-529
28.242360,-586,1676,-1018
28.262360,-550,1560,-1052
28.281894,-674,1721,-1004
28.301397,-568,1539,-1115
28.320931,-522,1055,-918
28.340464,-774,1246,-413
28.359967,-433,1240,-679
28.379501,-870,2033,-1004
28.399035,-2150,3149,1533
28.418538,-1122,2115,2476
28.438538,-83,1876,-224
28.458072,-818,2624,-897
28.477605,-724,2099,73
28.497109,-352,1728,253
28.516642,0,1821,224
28.536176,582,1810,398
28.555679,96,1892,380
28.575213,-256,1601,542
28.594747,348,1417,355
28.614747,894,1096,83
28.634280,1342,-259,2376
28.653783,1092,-22,3379
28.673317,653,939,1631
28.692820,555,330,1599
28.712354,328,74,1985
28.731519,510,185,1758
28.751449,624,-192,1828
28.770983,548,-563,1583
28.790486,646,-590,1540
28.810486,551,-586,1874
28.830020,499,-908,1774
28.849554,564,-1025,1624
28.869057,437,-1033,1753
28.888591,319,-1518,1564
28.908094,382,-1581,1208
28.927627,414,-1133,885
28.947161,326,-1522,530
28.966664,-136,-1804,328
28.986664,-518,-1500,-181
29.6198,-92,-2773,-190
29.25732,-43,-3457,249
29.45235,-463,-1886,-486
29.64769,-325,-1356,-1236
29.84302,-256,-1845,-1354
29.103805,-418,-1877,-1163
29.123339,-549,-1956,-552
29.142842,-627,-2109,-600
29.162842,-745,-1652,-1320
29.182376,-963,-1240,-1579
29.201910,-1036,-1350,-1309
29.221413,-983,-1325,-1284
29.240947,-883,-1413,-1391
29.260480,-865,-1529,-1313
29.279983,-904,-1354,-1529
29.299517,-970,-1091,-1775
29.319020,-981,-736,-1647
29.339020,-940,-616,-1559
29.358554,-1066,-634,-1624
29.378088,-1352,-143,-1654
29.397591,-1441,224,-1468
29.417124,-1266,146,-1320
29.436658,-1391,285,-1359
29.456161,-1599,701,-1195
29.475695,-1454,1078,-995
29.495229,-1556,876,-897
29.515229,-1868,671,-741
29.534732,-1765,1039,-499
29.554266,-1788,835,-320
29.573799,-1841,746,-206
29.593302,-1806,1217,87
29.612836,-2223,551,251
29.632370,-1670,194,98
29.651873,-1108,1119,42
29.671407,-1991,1387,467
29.691407,-1691,951,1074
29.710910,-849,815,1340
29.730444,-1334,805,1392
29.749977,-1372,399,1223
29.769480,-1029,92,1115
29.789014,-1079,-179,1431
29.808517,-1047,-550,1639
29.828051,-1302,-365,1487
29.847585,-1409,-327,1217
29.867585,-1150,-947,1467
29.887088,-1059,-1520,1678
29.906622,-890,-1531,1012
29.926125,-820,-1338,755
29.945658,-868,-1381,882
29.965192,-816,-1415,726
29.984695,-870,-1611,1003
30.4229,-1025,-1859,1094
30.23763,-1031,-1784,707
30.43763,-893,-1811,1119
30.63266,-827,-1754,1280
30.82800,-699,-1822,807
30.102303,-699,-1948,862
30.121836,-809,-1118,914
30.141370,-577,-1495,733
30.160873,-388,-2882,-918
30.180407,-538,-2122,-2132
30.199941,-425,-2000,-304
30.219941,-172,-3197,410
30.239444,-500,-1443,-1075
30.258978,-443,-222,-1731
30.278511,155,-1549,-1350
30.298014,207,-1547,-899
30.317548,399,-1552,-1697
30.337051,485,-1957,-2250
30.356585,358,-1541,-1597
30.376119,760,-1154,-1563
30.396119,903,-1127,-1945
30.415622,928,-934,-2043
30.435155,1058,-613,-1850
30.454659,803,-583,-1656
30.474192,758,-400,-1738
30.493696,1003,-177,-1865
30.513229,1035,37,-1740
30.532763,998,376,-1461
30.552266,1005,487,-1254
30.572266,983,555,-1461
30.591800,1144,839,-1656
30.611333,1269,1051,-1109
30.630837,1155,1083,-822
30.650370,1342,1115,-1040
30.669874,1544,1214,-809
30.689407,1539,1287,-670
30.708910,1665,1185,-781
30.728075,1237,1558,-304
30.748006,760,1869,-233
30.768006,1476,762,-750
30.787540,1730,664,-790
30.807043,985,2133,-927
30.826576,967,1874,-733
30.846080,1039,1431,-374
30.865613,562,2788,-204
30.885116,541,2572,239
30.904650,649,542,-372
30.924153,341,476,-450
30.944153,403,1524,935
30.963687,589,1558,1328
30.983190,366,1692,1501
31.2693,192,1987,1803
31.22227,85,1628,1549
31.41730,-92,894,2026
31.61264,-161,251,2239
31.80767,-229,249,1655
31.100301,-313,517,1773
31.120301,-302,235,2017
31.139804,-429,-79,1794
31.159338,-618,-168,1701
31.178841,-593,-538,2114
31.198374,-549,-1058,2247
31.217878,-600,-1163,1719
31.237381,-759,-1079,1049
31.256915,-861,-1711,794
31.276418,-511,-2075,1139
31.296418,-427,-1659,789
31.315951,-904,-2209,194
31.335455,-1040,-2823,176
31.354988,-1002,-2202,-422
31.374491,-775,-1624,-806
31.394025,-224,-1479,-945
31.413559,-477,-1547,-1890
31.433062,-1174,-1732,-2027
31.452596,-993,-1108,-1793
31.472596,-488,105,-1906
31.492099,-363,826,-1584
31.511633,-297,1069,-1532
31.531136,-217,1078,-1474
31.550669,-275,1235,-1006
31.570173,-115,1637,-624
31.589706,55,1771,-408
31.609209,-31,1806,-252
31.628743,333,2055,-33
31.648743,692,1946,244
31.668277,494,1503,473
31.687780,487,1378,678
31.707314,698,1423,803
31.726817,815,1460,930
31.746351,1021,1314,1167
31.765854,1251,887,1651
31.785387,1248,558,2151
31.804891,1228,232,1830
31.824891,1242,-268,814
31.844424,905,782,924
31.863958,957,2158,1349
31.883461,1399,62,962
31.902995,1194,-2702,1958
31.922498,1071,-2313,2094
31.942032,1133,-674,576
31.961565,830,3,451
31.981069,573,-15,1005
32.1069,746,-1397,690
32.20602,832,-3379,-50
32.40136,576,-3064,-449
32.59639,424,-1597,-747
32.79173,101,-2111,-17
32.98707,99,-3164,464
32.118210,341,-2413,-741
32.137743,48,-1774,-981
32.157247,-159,-1895,-383
32.177247,-224,-1438,-1236
32.196780,-381,-975,-2352
32.216314,-386,-784,-2173
32.235817,-534,-383,-1495
32.255351,-966,-209,-1363
32.274854,-1222,-393,-1774
32.294388,-1216,33,-2018
32.313891,-1311,808,-1804
32.333394,-1356,790,-1613
32.353394,-988,612,-1482
32.372928,-806,898,-1341
32.392431,-1118,992,-1700
32.411965,-1118,1176,-1509
32.431468,-922,1762,-349
32.451001,-1102,1955,-386
32.470505,-1282,1626,-1081
32.490038,-1050,1780,-608
32.509572,-747,2269,285
32.529572,-595,2033,244
32.549075,-393,1974,-338
32.568609,-274,2672,-208
32.588112,-470,2531,-68
32.607646,-449,1415,-372
32.627149,189,874,-268
32.646683,757,1074,1
32.666216,1290,1410,214
32.685719,1658,1549,285
32.705719,1655,1271,332
32.725253,1610,764,460
32.744418,1653,362,203
32.764349,2051,444,441
32.783882,2176,582,1005
32.803385,2078,316,833
32.822919,2240,78,176
32.842453,2121,44,505
32.861956,1701,1,2008
32.881490,1701,-18,1628
32.901490,1985,-50,96
32.920993,2042,-109,373
32.940527,1931,-306,576
32.960030,1789,-1302,-924
32.979563,1758,-1161,-1656
32.999097,1701,185,-836
33.18631,1433,-429,-456
33.38134,1196,-1186,-1152
33.57668,1256,-390,-2204
33.77668,1276,-409,-2190
33.97201,1199,-1261,-1320
33.116735,1140,-1220,-997
33.136238,746,-375,-1100
33.155772,230,273,-1279
33.175306,57,328,-1932
33.194839,169,12,-2772
33.214342,267,-293,-2991
33.233876,-81,507,-2604
33.253876,-525,1535,-1563
33.273410,-481,1055,-677
33.292944,-720,867,-652
33.312447,-1213,1519,-261
33.331980,-1291,1573,205
33.351514,-1468,1317,369
33.371048,-1757,1267,928
33.390551,-1697,923,790
33.410085,-1611,578,394
33.430085,-1807,903,1228
33.449618,-1963,649,1617
33.469122,-2047,1,1082
33.488655,-2020,160,1126
33.508189,-1766,269,1162
33.527723,-1811,-33,1223
33.547226,-2111,-193,1398
33.566759,-1875,-243,1039
33.586293,-1495,-517,1083
33.606293,-1532,-863,1698
33.625796,-1475,-984,1885
33.645330,-1165,-1166,1526
33.664864,-859,-1150,1099
33.684367,-913,-1122,516
33.703901,-713,-1884,69
33.723434,-42,-2440,310
33.742968,-267,-2166,403
33.762471,-472,-2038,82
33.782471,214,-2145,-329
33.802005,437,-1927,-786
33.821539,539,-1500,-900
33.841042,987,-1254,-800
33.860575,1032,-1018,-795
33.880109,1253,-940,-895
33.899612,1476,-517,-1056
33.919146,976,330,-1302
33.938680,1742,-109,-1286
33.958680,2685,-625,-779
33.978183,1997,-45,-511
33.997717,1924,192,-343
34.17250,2147,396,-59
34.36753,1989,778,-38
34.56287,2042,765,10
34.75821,2024,735,-58
34.95324,1905,1178,-593
34.114858,1283,1417,-931
34.134858,982,523,110
34.154361,1410,-83,1356
34.173894,1449,367,1471
34.193428,1449,592,1490
34.212962,1710,232,1480
34.232465,1706,-220,1331
34.251999,1624,-86,1412
34.271532,1705,485,1621
34.291036,1665,1162,1580
34.311036,1428,1901,533
34.330569,1599,1581,-365
34.350103,2065,96,98
34.369606,1958,-709,1160
34.389140,1562,-211,1631
34.408674,1442,617,1339
34.428177,1460,1117,1348
34.447710,1556,1074,1189
34.467244,1751,592,932
34.487244,1705,516,1289
34.506778,1399,708,1071
34.526281,1346,187,441
34.545815,1492,-79,424
34.565348,1592,546,951
34.584852,1412,662,1401
34.604385,1087,-492,810
34.623919,1194,-2011,573
34.643422,1494,-2482,1139
34.663422,1371,-2015,658
34.682956,994,-1706,189
34.702459,937,-1850,216
34.721993,1071,-2398,48
34.741188,1023,-2793,182
34.761088,967,-2225,30
34.780622,971,-1506,-238
34.800155,873,-1522,-109
34.819659,733,-1922,-227
34.839192,632,-1925,-259
34.859192,696,-1345,-356
34.878726,626,-1209,-654
34.898229,455,-1425,-609
34.917763,448,-1618,-520
34.937297,419,-1652,-690
34.956830,314,-1372,-1145
34.976333,3,-1645,-1652
34.995867,-125,-2129,-2063
35.15370,-65,-1375,-1781
35.35370,-392,91,-1557
35.54904,-533,-627,-2020
35.74438,-247,-1715,-1529
35.93941,-324,-554,-1934
35.113475,-388,-13,-2625
35.133008,-427,-390,-1175
35.152511,-616,-13,-1254
35.172045,-475,128,-2531
35.191579,-138,-88,-1802
35.211579,-38,285,-693
35.231082,-261,182,-1447
35.250616,-6,-131,-2291
35.270119,232,23,-1966
35.289653,8,-22,-1973
35.309156,21,-52,-2079
35.328689,62,-17,-2000
35.348223,26,-34,-2041
35.367726,41,-29,-2040
35.387726,39,-25,-2013
35.407260,35,-29,-2018
35.426763,41,-34,-2034
35.446297,41,-33,-2029
35.465831,33,-27,-2032
35.485334,32,-24,-2032
35.504867,35,-25,-2020
35.524371,28,-29,-2023
35.543904,30,-24,-2031
35.563904,46,-29,-2029
35.583407,48,-22,-2034
35.602941,41,-8,-2031
35.622475,37,-75,-2027
35.641978,37,-81,-2038
35.661512,37,23,-2041
35.681015,28,16,-2027
35.700549,42,-47,-2016
35.720082,82,-67,-2029
35.740082,116,-92,-2041
35.759585,14,-40,-2038
35.779119,-142,73,-2038
35.798622,16,21,-2038
35.818156,126,-83,-2031
35.837690,5,-45,-2022
35.857193,21,-17,-2027
35.876727,46,-42,-2029
35.896260,26,-33,-2023
35.916260,37,-9,-2034
35.935763,41,-20,-2041
35.955297,35,-31,-2034
35.974800,28,-20,-2034
35.994334,32,-20,-2027
36.13868,33,-31,-2023
36.33371,32,-27,-2032
36.52905,28,-24,-2031
36.72438,30,-27,-2031
36.92438,33,-31,-2031
36.111941,37,-27,-2031
36.131475,41,-22,-2031
36.150978,41,-25,-2029
36.170512,37,-27,-2025
36.190015,33,-27,-2027
36.209549,32,-29,-2032
36.229082,33,-27,-2032
36.248586,33,-22,-2027
36.268586,35,-25,-2027
36.288119,39,-27,-2034
36.307653,41,-34,-2038
36.327156,32,-31,-2031
36.346690,17,-9,-2022
36.366224,39,-63,-2015
36.385727,46,-58,-2029
36.405260,24,33,-2045
36.424764,32,-9,-2038
36.444764,41,-42,-2031
36.464297,41,-11,-2036
36.483801,32,-27,-2040
36.503334,33,-13,-2025
36.522868,42,26,-2013
36.542371,24,-24,-2032
36.561905,19,-77,-2043
36.581408,24,-43,-2029
36.600942,30,-27,-2025
36.620942,46,-8,-2034
36.640445,46,0,-2034
36.659978,39,-54,-2029
36.679512,37,-54,-2027
36.699015,24,-17,-2027
36.718549,24,-17,-2027
36.738083,39,-33,-2032
36.757586,41,-43,-2034
36.777120,37,-34,-2032
36.797120,35,-29,-2032
36.816623,33,-29,-2029
36.836156,33,-29,-2032
36.855660,28,-34,-2036
36.875193,37,-31,-2020
36.894727,42,-18,-2013
36.914230,32,-17,-2031
36.933764,42,-29,-2045
36.953298,44,-31,-2036
36.973298,30,-20,-2032
36.992801,35,-20,-2034
37.12334,48,-25,-2034
37.31838,42,-34,-2034
37.51371,39,-34,-2029
37.70874,39,-25,-2029
37.90408,30,-22,-2034
37.109942,35,-31,-2031
37.129445,46,-43,-2029
37.149445,32,-24,-2032
37.168979,28,-9,-2031
37.188512,42,-34,-2034
37.208016,33,-38,-2038
37.227549,24,-18,-2031
37.247083,28,-18,-2029
37.266586,33,-29,-2031
37.286120,32,-33,-2029
37.305654,26,-29,-2032
37.325654,30,-27,-2029
37.345157,39,-27,-2027
37.364690,39,-29,-2038
37.384224,30,-25,-2031
37.403727,32,-25,-2022
37.423261,42,-24,-2025
37.442795,37,-25,-2031
37.462875,35,-29,-2038
37.481521,33,-22,-2038
37.501114,33,-24,-2027
37.520676,37,-34,-2022
37.540268,26,-27,-2031
37.559830,48,-38,-2029
37.579422,17,-31,-2022
37.598984,23,-15,-2031
37.618576,132,-88,-2027
37.638138,-11,-47,-2020
37.657730,-54,-4,-2027
37.677292,133,-99,-2027
37.696884,91,-58,-2025
37.716446,24,-15,-2036
37.736008,48,-43,-2038
37.755938,53,-36,-2025
37.775472,49,-40,-2029
37.795472,41,-45,-2038
37.814975,49,-40,-2038
37.834140,51,-34,-2036
37.853732,46,-38,-2029
37.873294,49,-24,-2027
37.892856,42,-24,-2025
37.912448,33,-36,-2022
37.932010,42,-38,-2031
37.951572,44,-47,-2036
37.971164,39,-29,-2025
37.990726,28,-15,-2027
38.10318,24,-29,-2036
38.29880,49,-56,-2032
38.49472,60,-61,-2029
38.69034,48,-34,-2029
38.88626,46,-38,-2029
38.108188,46,-42,-2034
38.127780,44,-40,-2043
38.147342,41,-36,-2036
38.166934,41,-33,-2029
38.186496,44,-40,-2040
38.206088,44,-34,-2025
38.225650,37,-33,-2023
38.245212,41,-38,-2041
38.264804,42,-27,-2031
38.284366,33,-29,-2023
38.303958,41,-40,-2032
38.323520,46,-33,-2031
38.343112,37,-29,-2029
38.362674,41,-36,-2029
38.382266,49,-42,-2031
; 38.382 stopping logging: shutdown: switched off
