;Title, http://www.gcdataconcepts.com, x16-1d, ADXL345
;Version, 1877, Build date, Jan  8 2020,  SN:CCDC4016ECDDBE3
;Start_time, 2022-11-15, 16:29:11.412
;Uptime, 4,sec,  Vbat, 1412, mv, EOL, 1100, mv
;SampleRate, 100,Hz
;Deadband, 0, counts
;DeadbandTimeout, 0.000,sec
;Time, Ax, Ay, Az
0.160098,39,-34,-2023
0.169775,44,-29,-2022
0.179421,44,-33,-2036
0.189097,39,-34,-2034
0.199097,35,-25,-2013
0.208743,35,-25,-2034
0.218420,49,-22,-2040
0.228066,48,-15,-2020
0.237712,39,-24,-2048
0.247712,41,-33,-2057
0.257388,35,-29,-2041
0.267034,28,-20,-2036
0.276711,33,-25,-2027
0.286357,39,-24,-2031
0.296357,41,-13,-2040
0.306033,41,-20,-2041
0.315679,42,-33,-2034
0.325325,48,-33,-2016
0.335002,42,-27,-2018
0.345002,35,-27,-2025
0.354678,39,-29,-2038
0.364324,39,-25,-2047
0.374001,35,-31,-2048
0.383647,46,-29,-2043
0.393647,51,-20,-2020
0.403293,33,-29,-2018
0.412969,28,-34,-2034
0.422615,44,-24,-2036
0.432292,46,-29,-2034
0.442292,37,-31,-2027
0.451938,32,-15,-2016
0.461614,33,-18,-2018
0.471260,33,-33,-2029
0.480906,41,-24,-2013
0.490906,39,-22,-2018
0.500583,30,-29,-2045
0.510229,48,-29,-2045
0.519905,58,-27,-2040
0.529551,49,-18,-2031
0.539551,44,-20,-2029
0.549197,39,-29,-2023
0.558874,44,-20,-2007
0.568520,42,-17,-2016
0.578196,32,-25,-2031
0.588196,30,-27,-2034
0.597842,39,-24,-2023
0.607488,41,-20,-2022
0.617165,37,-18,-2040
0.626811,46,-24,-2048
0.636811,46,-31,-2041
0.646457,32,-24,-2036
0.656133,35,-18,-2040
0.665779,41,-25,-2040
0.675425,39,-22,-2032
0.685425,48,-22,-2018
0.695102,41,-34,-2020
0.704748,26,-36,-2036
0.714424,39,-27,-2040
0.724070,41,-25,-2045
0.734070,42,-31,-2048
0.743716,53,-22,-2036
0.753393,42,-13,-2016
0.763039,46,-15,-2022
0.772715,55,-22,-2048
0.782715,37,-25,-2056
0.792361,37,-31,-2034
0.802007,37,-29,-2022
0.811684,28,-27,-2038
0.821330,42,-31,-2045
0.831330,53,-34,-2027
0.840976,42,-31,-2023
0.850652,42,-20,-2038
0.860298,44,-29,-2031
0.869975,35,-31,-2025
0.879975,44,-15,-2036
0.889621,51,-20,-2040
0.899267,46,-27,-2031
0.908943,35,-22,-2025
0.918589,32,-15,-2032
0.928589,33,-15,-2040
0.938235,35,-24,-2025
0.947912,35,-25,-2015
0.957558,30,-29,-2029
0.967234,32,-33,-2036
0.977234,35,-29,-2022
0.986880,33,-31,-2025
0.996526,35,-25,-2041
1.6203,37,-22,-2038
1.15849,41,-31,-2023
1.25849,44,-33,-2016
1.35495,44,-31,-2023
1.45171,44,-29,-2034
1.54817,51,-33,-2036
1.64494,53,-29,-2029
1.74494,41,-24,-2032
1.84140,44,-24,-2040
1.93786,35,-24,-2023
1.103462,24,-24,-2018
1.113108,32,-24,-2025
1.123108,30,-18,-2032
1.132754,37,-24,-2036
1.142431,42,-25,-2022
1.152077,33,-11,-2027
1.161753,30,-18,-2040
1.171753,30,-34,-2027
1.181399,42,-33,-2031
1.191045,44,-25,-2047
1.200722,48,-9,-2038
1.210368,64,-59,-2020
1.220368,24,26,-2023
1.230014,7,235,-2040
1.239690,78,74,-2043
1.249336,78,-140,-2036
1.259013,41,-159,-2038
1.269013,58,-177,-2041
1.278659,51,-70,-2029
1.288305,33,-15,-2023
1.297981,32,-38,-2038
1.307627,35,-15,-2045
1.317627,41,-18,-2040
1.327273,33,-31,-2027
1.336950,30,-27,-2023
1.346596,35,-25,-2038
1.356272,37,-31,-2047
1.366272,33,-29,-2038
1.375918,35,-20,-2025
1.385564,46,-18,-2034
1.395241,35,-29,-2036
1.404887,26,-31,-2029
1.414887,44,-20,-2036
1.424563,41,-29,-2031
1.434209,33,-36,-2025
1.443855,44,-29,-2018
1.453532,48,-27,-2020
1.463532,49,-27,-2040
1.473178,39,-29,-2029
1.482854,30,-25,-2027
1.492500,48,-27,-2040
1.502146,49,-29,-2043
1.512146,37,-22,-2050
1.521823,39,-27,-2043
1.531469,26,-33,-2029
1.541145,21,-27,-2031
1.550791,46,-36,-2038
1.560791,39,-29,-2040
1.570437,37,-29,-2043
1.580114,55,-61,-2040
1.589422,35,-92,-2038
1.599495,37,-106,-2043
1.609141,35,0,-2041
1.619141,14,105,-2032
1.628787,32,19,-2022
1.638464,48,-42,-2013
1.648110,44,-20,-2025
1.657756,39,-29,-2041
1.667756,35,-27,-2032
1.677432,46,-45,-2047
1.687078,66,-56,-2052
1.696755,57,3,-2038
1.706401,32,14,-2040
1.716401,23,-27,-2029
1.726047,32,-40,-2023
1.735723,37,-45,-2027
1.745369,35,-40,-2038
1.755046,41,-25,-2056
1.765046,32,-27,-2031
1.774323,28,-33,-2011
1.784427,42,-24,-2031
1.794073,42,-22,-2036
1.803719,37,-31,-2036
1.813395,41,-27,-2045
1.823395,37,-29,-2043
1.833041,32,-38,-2031
1.842687,23,-25,-2029
1.852364,26,-29,-2040
1.862010,51,-31,-2025
1.872010,46,-6,-2015
1.881686,19,-18,-2034
1.891332,24,-22,-2036
1.900978,51,-2,-2036
1.910655,32,-27,-2038
1.920655,-11,-84,-2034
1.930301,3,-111,-2045
1.939977,30,-29,-2057
1.949623,51,74,-2040
1.959269,64,42,-2027
1.969269,37,-18,-2047
1.978946,32,0,-2045
1.988592,37,1,-2023
1.998268,46,-15,-2027
2.7914,51,-13,-2041
2.17914,17,-8,-2040
2.27591,32,1,-2002
2.37237,58,8,-2007
2.46913,42,7,-2052
2.56559,48,1,-2061
2.66559,21,-4,-2056
2.76205,8,17,-2020
2.85882,71,67,-2011
2.95528,44,49,-2057
2.105204,-9,14,-2031
2.115204,78,87,-1961
2.124850,92,92,-2025
2.134496,14,35,-2090
2.144173,30,48,-2036
2.153819,33,78,-2038
2.163819,26,98,-2070
2.173465,49,87,-2047
2.183141,24,78,-2027
2.192787,28,49,-1984
2.202433,73,17,-1970
2.212433,62,44,-2043
2.222110,42,73,-2065
2.231756,33,78,-2016
2.241402,26,60,-2029
2.251078,39,49,-2059
2.261078,33,57,-2045
2.270724,32,67,-2041
2.280370,37,78,-2059
2.290047,26,66,-2052
2.299693,39,64,-2050
2.309693,62,94,-2066
2.319339,44,121,-2043
2.329015,33,112,-2018
2.338661,39,87,-2020
2.348338,32,98,-2025
2.358338,42,130,-2032
2.367984,48,116,-2041
2.377630,37,103,-2029
2.387306,35,94,-2011
2.396952,51,58,-2045
2.406952,49,78,-2100
2.416598,37,148,-2081
2.426275,44,201,-2029
2.435921,42,192,-2015
2.445597,46,148,-2004
2.455597,48,153,-2007
2.465243,35,178,-2022
2.474889,41,178,-2025
2.484566,46,199,-2047
2.494212,44,274,-2043
2.504212,26,294,-2023
2.513888,14,267,-2009
2.523534,23,230,-1954
2.533180,23,166,-1963
2.542857,32,208,-2027
2.552857,42,251,-2036
2.562503,39,214,-2040
2.572179,30,221,-2038
2.581825,35,205,-2038
2.591471,44,196,-2040
2.601471,42,239,-2034
2.611148,37,246,-2047
2.620794,32,251,-2027
2.630470,28,257,-2000
2.640116,33,249,-2002
2.650116,41,253,-1998
2.659762,33,253,-2004
2.669439,35,255,-2009
2.679085,60,266,-1995
2.688761,62,266,-2004
2.698761,37,260,-2029
2.708407,35,249,-2032
2.718053,41,255,-2029
2.727730,46,248,-2029
2.737376,42,221,-2029
2.747376,33,223,-2032
2.757052,39,237,-2025
2.766698,49,253,-2018
2.776344,49,273,-2022
2.786021,41,258,-2025
2.796021,37,248,-2022
2.805667,33,264,-2023
2.815313,35,271,-2040
2.824989,42,269,-2045
2.834635,39,257,-2031
2.844635,37,274,-2032
2.854312,32,292,-2013
2.863958,30,276,-1993
2.873604,44,342,-2093
2.883280,39,339,-2109
2.893280,5,276,-2006
2.902926,23,366,-2038
2.912572,78,394,-2038
2.922249,60,355,-1981
2.931895,28,391,-1995
2.941895,41,387,-1979
2.951572,32,399,-1954
2.961218,30,426,-1963
2.970894,46,382,-1968
2.980540,49,387,-1984
2.990540,44,453,-1991
3.186,30,483,-1998
3.9863,33,492,-2018
3.19509,48,507,-2009
3.29185,32,478,-2036
3.39185,35,444,-2036
3.48831,51,555,-1959
3.58508,28,653,-1972
3.68154,39,589,-1995
3.77800,57,566,-1945
3.87800,35,637,-1929
3.97476,33,714,-1940
3.107122,48,751,-1927
3.116799,60,708,-1888
3.126445,23,658,-1865
3.136445,-2,749,-1852
3.146121,55,878,-1832
3.155767,64,882,-1840
3.165444,14,894,-1838
3.175090,-4,890,-1848
3.185090,-2,805,-1847
3.194736,12,885,-1731
3.204412,7,1032,-1656
3.214058,7,1037,-1736
3.223735,32,1048,-1804
3.233735,5,1055,-1813
3.243381,12,1044,-1779
3.253057,73,1101,-1649
3.262703,44,1151,-1568
3.272349,19,1167,-1604
3.282349,26,1194,-1661
3.292026,24,1208,-1677
3.301672,69,1210,-1609
3.311348,71,1240,-1559
3.320994,37,1298,-1536
3.330994,26,1326,-1550
3.340671,26,1344,-1575
3.350317,46,1374,-1493
3.359963,35,1381,-1424
3.369639,12,1419,-1388
3.379639,17,1469,-1320
3.389285,19,1471,-1332
3.398931,21,1494,-1402
3.408608,26,1524,-1388
3.418254,24,1512,-1350
3.428254,14,1533,-1340
3.437930,28,1553,-1340
3.447576,30,1528,-1356
3.457253,-4,1535,-1331
3.466899,21,1601,-1390
3.476899,74,1587,-1509
3.486545,32,1580,-1424
3.496221,32,1601,-1629
3.505867,60,1524,-1459
3.515513,30,1446,-784
3.525513,62,876,-1195
3.535190,-308,3260,264
3.544836,-684,5331,1972
3.554482,-399,1378,1057
3.564158,26,692,740
3.574158,228,3115,-67
3.583804,96,2442,-63
3.593112,-38,1935,735
3.603185,-4,2056,194
3.612862,0,1992,142
3.622508,3,2040,308
3.632508,24,2015,337
3.642184,32,1960,455
3.651830,16,1956,419
3.661507,-13,1999,391
3.671153,-31,2028,341
3.681153,-2,1990,321
3.690799,32,1960,455
3.700475,17,2012,399
3.710121,12,2044,192
3.719798,-2,2003,164
3.729798,-18,2015,205
3.739444,1,2033,267
3.749120,1,2003,314
3.758766,-11,1996,299
3.768443,-8,2008,287
3.778443,-4,2022,287
3.788089,-4,2010,303
3.797735,0,1981,303
3.807411,0,1996,296
3.817057,0,2024,299
3.827057,-2,2012,285
3.836734,0,1997,285
3.846380,7,2019,298
3.856026,5,2008,296
3.865702,-6,1992,310
3.875702,-17,2008,314
3.885348,-9,2017,291
3.895025,-4,2017,292
3.904671,-4,2010,301
3.914347,3,2014,296
3.924347,1,2019,298
3.933993,-2,2006,291
3.943670,-2,1997,287
3.953316,-11,1996,301
3.962962,-11,2010,305
3.972962,-2,2017,299
3.982638,0,1999,310
3.992284,-2,1990,298
4.1961,3,1999,294
4.11607,7,2015,321
4.21607,3,2012,312
4.31253,0,1999,283
4.40929,-2,2010,285
4.50575,-4,2019,299
4.60252,-6,2012,307
4.70252,-8,2014,308
4.79898,-4,2008,305
4.89544,7,2008,298
4.99220,3,2005,294
4.108866,-4,1997,296
4.118866,0,2005,296
4.128543,-4,2010,298
4.138189,-2,2008,307
4.147865,0,2003,305
4.157511,0,2003,303
4.167511,5,2003,317
4.177157,5,1999,310
4.186834,-4,2006,294
4.196480,-11,2005,294
4.206156,-2,2001,299
4.216156,-2,2006,301
4.225802,-9,2006,305
4.235479,-4,2008,308
4.245125,1,2014,310
4.254801,5,2006,308
4.264801,5,2008,298
4.274447,0,2019,296
4.284093,-4,2005,292
4.293770,-8,1994,294
4.303416,-6,2008,299
4.313416,1,2019,283
4.323093,-2,2010,292
4.332739,-4,2006,307
4.342385,0,2008,301
4.352061,-2,2008,305
4.362061,-6,2012,298
4.371707,-4,2005,287
4.381384,-6,2001,305
4.391030,-6,2001,307
4.400706,1,2006,298
4.410706,-4,2014,310
4.420352,-11,2006,307
4.430029,-4,2008,299
4.439675,-4,2012,294
4.449351,-6,2005,289
4.459351,3,2010,298
4.468997,5,2019,310
4.478643,-2,2008,301
4.488320,-4,2001,292
4.497966,0,2005,298
4.507966,0,2006,301
4.517642,-4,2010,294
4.527288,-8,2012,303
4.536965,-9,2012,312
4.546611,-4,2006,301
4.556611,-2,1999,298
4.566257,-9,2001,308
4.575933,-4,2005,312
4.585424,1,2010,310
4.595314,-4,2005,307
4.604960,-8,2005,305
4.614960,0,2015,305
4.624637,7,2008,299
4.634283,-6,2003,294
4.643959,-13,2012,298
4.653605,-2,2005,299
4.663605,-6,1999,289
4.673251,-9,2017,305
4.682928,5,2017,305
4.692574,5,2001,278
4.702250,-2,2001,305
4.712250,1,2003,314
4.721896,-4,1999,283
4.731542,0,2003,291
4.741219,0,2010,310
4.750865,-6,2008,308
4.760865,-4,2010,303
4.770541,-4,2014,298
4.780187,-8,2001,301
4.789864,-2,1999,303
4.799510,7,2010,296
4.809510,1,2015,301
4.819156,-6,2006,312
4.828832,-4,1999,310
4.838478,0,2012,299
4.848155,1,2015,310
4.858155,1,2010,317
4.867801,-6,2022,296
4.877447,-9,2021,299
4.887123,1,2006,310
4.896769,10,2003,296
4.906769,0,2006,307
4.916446,-9,2008,321
4.926092,-8,2010,301
4.935768,0,2015,291
4.945414,-6,2015,299
4.955414,-17,2003,296
4.965060,-8,2001,291
4.974737,3,2014,308
4.984383,0,2008,305
4.994059,-2,1994,282
5.4059,3,2003,296
5.13705,1,2012,305
5.23382,-6,2003,292
5.33028,3,2006,292
5.42674,7,2015,301
5.52674,0,2008,299
5.62350,1,1999,296
5.71996,0,2003,312
5.81673,-2,2001,312
5.91319,0,1997,301
5.101319,-6,2008,298
5.110995,-8,2010,303
5.120641,-4,2001,310
5.130287,1,1994,298
5.139964,-2,1999,296
5.149964,-13,2008,308
5.159610,-4,2003,296
5.169286,1,2003,289
5.178932,-2,2010,305
5.188609,3,2012,310
5.198609,3,2006,299
5.208255,0,2003,301
5.217931,1,2008,298
5.227577,0,2012,292
5.237223,-8,2010,303
5.247223,-13,2010,310
5.256900,-9,2006,312
5.266546,-9,2003,301
5.276222,-6,2015,298
5.285868,0,2014,307
5.295868,0,2003,294
5.305514,-2,2012,289
5.315191,1,2012,296
5.324837,0,2006,296
5.334483,-6,2006,299
5.344483,-4,1999,308
5.354159,0,1999,314
5.363805,-6,2005,310
5.373451,-11,2008,299
5.383128,-6,2006,301
5.393128,0,2003,299
5.402774,3,2006,287
5.412420,5,2001,294
5.422096,1,2005,303
5.431742,1,2008,292
5.441742,0,2005,294
5.451419,-13,2006,308
5.461065,-4,2005,303
5.470711,12,2008,298
5.480387,1,2012,305
5.490387,0,2014,299
5.500033,1,2010,299
5.509679,-6,2012,299
5.519356,-8,2008,299
5.529002,0,2008,307
5.539002,5,2017,301
5.548678,0,2014,298
5.558324,-2,2010,305
5.568001,0,2014,299
5.577647,0,2005,292
5.587647,-2,2006,310
5.597323,-2,2006,323
5.606969,0,1997,301
5.616615,-2,2012,289
5.626292,0,2015,299
5.636292,0,2005,303
5.645938,-8,2017,303
5.655614,-4,2006,296
5.665260,-2,1999,301
5.674937,-11,2012,312
5.684937,-2,2001,291
5.694583,3,1996,278
5.704229,-6,2006,294
5.713905,-4,2012,298
5.723551,-6,2014,303
5.733551,-8,2014,310
5.743228,-2,2006,307
5.752874,-9,2006,298
5.762520,-8,2014,303
5.772197,12,2005,305
5.782197,12,2006,298
5.791843,-6,2012,314
5.801519,-4,2003,312
5.811165,3,2006,296
5.820842,-2,2010,301
5.830842,-6,2014,312
5.840488,-4,2010,314
5.850134,-4,2003,298
5.859810,0,2010,285
5.869456,3,2019,292
5.879456,-4,2019,305
5.889133,0,2006,299
5.898779,-2,1996,292
5.908455,0,1997,296
5.918101,7,2010,296
5.928101,1,2014,292
5.937747,-8,2006,298
5.947424,-13,2006,294
5.957070,-9,2006,291
5.966746,-8,1999,298
5.976746,-15,1999,303
5.986392,-4,2010,308
5.996038,3,2008,298
6.5715,0,2006,289
6.15361,1,2010,296
6.25361,8,2010,299
6.35007,3,2014,298
6.44683,-6,2003,296
6.54329,-2,1992,301
6.64006,0,2006,307
6.74006,-4,2006,301
6.83652,-2,2001,294
6.93298,-2,2015,296
6.102974,-2,2022,298
6.112620,3,2010,294
6.122620,3,2012,305
6.132297,-8,2022,307
6.141943,-8,2003,299
6.151589,-6,1992,299
6.161265,-8,2008,305
6.171265,-4,2012,310
6.180911,3,2014,303
6.190588,3,2014,307
6.200234,3,2006,308
6.209880,3,2006,303
6.219880,0,2010,298
6.229556,0,1999,291
6.239202,3,1997,298
6.248848,3,2006,305
6.258525,-6,2003,294
6.268525,-9,1999,294
6.278171,0,1997,310
6.287847,0,1997,303
6.297493,-4,2003,292
6.307139,-4,2010,301
6.317139,0,2005,301
6.326816,0,2005,298
6.336462,-2,2010,294
6.346138,0,2003,285
6.355784,3,2006,289
6.365784,-2,2010,299
6.375430,-2,2003,303
6.385107,7,2001,301
6.394753,3,2006,299
6.404429,-2,2008,292
6.414429,-2,2005,292
6.424075,0,2005,305
6.433721,-2,2006,303
6.443398,-2,2001,298
6.453044,-4,1999,312
6.463044,-4,2014,312
6.472720,5,2017,298
6.482366,1,2008,305
6.492012,-2,2012,307
6.501689,-8,2015,307
6.511689,-8,1999,310
6.521335,1,1994,287
6.531011,-8,2005,291
6.540657,-9,2012,308
6.550303,3,2017,298
6.560303,1,2017,296
6.569980,-2,2008,294
6.579626,0,2005,299
6.588934,0,2003,298
6.599007,-2,1997,289
6.608653,-8,2005,299
6.618653,-9,2017,303
6.628329,-2,2012,299
6.637975,3,2003,305
6.647621,-8,1997,299
6.657298,-2,1997,296
6.667298,7,2008,303
6.676944,0,2005,299
6.686590,3,2008,307
6.696266,5,2014,310
6.705912,-2,2003,301
6.715912,-4,1999,307
6.725589,-4,1999,299
6.735235,0,2010,296
6.744881,-2,2015,292
6.754557,0,2001,283
6.764557,5,2001,291
6.774203,7,2021,292
6.783880,8,2026,296
6.793526,0,2015,301
6.803172,-2,2014,294
6.813172,3,2012,294
6.822848,3,2005,299
6.832494,1,2010,307
6.842140,3,2019,307
6.851817,1,2010,301
6.861817,-6,2001,301
6.871463,-8,2008,299
6.881139,-4,2014,296
6.890785,-2,2012,292
6.900431,0,2014,314
6.910431,-2,2010,333
6.920108,-2,1997,299
6.929754,0,1996,285
6.939430,-6,2001,294
6.949076,-8,2006,294
6.959076,-2,2014,303
6.968753,0,2019,305
6.978399,-2,2017,303
6.988075,-2,2005,291
6.997721,-6,2001,292
7.7721,-4,2014,303
7.17367,3,2019,294
7.27044,1,2003,298
7.36690,1,1990,303
7.46366,7,1999,298
7.56366,1,2001,307
7.66012,-6,2001,303
7.75658,0,2008,283
7.85335,0,2010,285
7.94981,0,2010,292
7.104981,5,2003,294
7.114657,0,2005,312
7.124303,-6,2015,303
7.133949,-2,2010,291
7.143626,0,2012,298
7.153626,-2,2014,292
7.163272,0,1997,296
7.172918,0,1999,301
7.182594,-8,2001,291
7.192240,-15,1997,296
7.202240,-6,2015,303
7.211917,5,2017,294
7.221563,5,2006,298
7.231209,0,2010,303
7.240855,0,2006,294
7.250855,1,2005,291
7.260531,-2,2005,299
7.270177,-4,1997,305
7.279854,0,2008,307
7.289500,3,2010,299
7.299500,0,1997,287
7.309146,3,2012,299
7.318822,-11,2005,296
7.328468,-31,1981,291
7.338145,-9,2001,307
7.348145,5,2019,298
7.357791,-6,2003,291
7.367468,-2,2008,307
7.377114,3,2022,308
7.386790,-2,2012,299
7.396790,-4,2003,303
7.406436,-4,2001,299
7.416082,-2,2005,287
7.425759,0,2014,301
7.435405,-4,2010,314
7.445405,-9,2001,299
7.455081,-11,2005,294
7.464727,-2,2003,296
7.474404,-2,1996,292
7.484050,-11,1997,303
7.494050,-9,2006,305
7.503696,-2,2006,296
7.513372,-2,2003,307
7.523018,-4,2014,316
7.532695,0,2019,305
7.542695,0,2005,292
7.552341,-4,2003,289
7.561987,-2,2010,299
7.571663,-2,2005,294
7.581705,0,1996,285
7.591015,1,2001,299
7.601015,0,2015,296
7.610661,0,2006,289
7.620337,3,1999,301
7.629983,3,2014,301
7.639629,0,2019,299
7.649629,-2,2014,305
7.659306,1,2010,299
7.668952,3,2010,299
7.678628,-4,2005,298
7.688274,-9,2001,292
7.698274,-6,2010,301
7.707920,-6,2008,294
7.717597,-2,1999,282
7.727243,-2,2008,301
7.736919,-4,2017,317
7.746919,0,2012,301
7.756565,0,2010,299
7.766211,-2,2014,296
7.775888,-2,2008,287
7.785534,0,2006,294
7.795534,-2,2014,301
7.805210,-9,2010,305
7.814856,-4,2008,303
7.824502,1,2014,305
7.834179,-6,2010,307
7.844179,-6,2010,296
7.853825,-4,2001,294
7.863471,-2,1996,287
7.873147,0,2001,289
7.882793,-11,1999,303
7.892793,-8,2006,296
7.902470,0,2012,285
7.912116,-2,2008,289
7.921792,-2,2008,287
7.931438,0,2006,289
7.941438,-4,2008,291
7.951115,-4,2008,289
7.960761,0,2012,301
7.970407,-8,2010,308
7.980083,-8,2003,301
7.990083,3,2003,301
7.999729,-2,2005,307
8.9375,0,2005,303
8.19052,-2,2012,301
8.28698,-13,2012,310
8.38698,-6,2005,301
8.48374,1,2010,289
8.58020,-2,2003,296
8.67697,-4,1996,310
8.77343,0,2006,310
8.87343,0,1999,298
8.96989,-6,1994,296
8.106666,5,2015,292
8.116312,1,2015,282
8.125958,-11,2001,291
8.135958,0,2010,303
8.145634,3,2014,305
8.155280,-4,2006,299
8.164957,0,2008,299
8.174603,1,2006,303
8.184603,0,2003,296
8.194249,-2,2014,301
8.203925,-11,2003,308
8.213571,-6,2001,294
8.223248,8,2017,305
8.233248,-2,2001,310
8.242894,-8,1990,305
8.252570,1,2005,310
8.262216,-2,2005,301
8.271893,0,2001,307
8.281893,-2,2014,312
8.291539,-11,2017,301
8.301215,-6,2012,292
8.310861,0,2010,289
8.320507,1,2006,292
8.330507,3,2005,291
8.340184,0,2005,292
8.349830,-4,2005,291
8.359506,-6,2005,298
8.369152,-2,2003,310
8.379152,1,2001,294
8.388798,-4,2005,292
8.398475,-11,2008,305
8.408121,-8,2012,292
8.417797,-6,2008,299
8.427797,-8,2001,319
8.437443,0,2006,296
8.447089,-2,2014,283
8.456766,-4,2015,305
8.466412,0,2014,307
8.476412,-4,2003,303
8.486088,0,1994,308
8.495734,-2,1996,310
8.505411,-6,2001,316
8.515057,0,2010,317
8.525057,-8,2014,310
8.534733,-6,2006,303
8.544379,0,2010,296
8.554025,0,2015,289
8.563702,-2,2008,307
8.573702,-6,2012,314
8.583348,-4,2008,291
8.592994,-2,2001,301
8.602670,1,2014,319
8.612316,7,2014,307
8.622316,0,2001,308
8.631993,-2,2005,305
8.641639,5,2012,291
8.651315,0,2010,301
8.660961,-6,2012,312
8.670961,-4,2010,307
8.680607,-2,1999,299
8.690284,1,2006,285
8.699930,3,2010,289
8.709606,1,2010,305
8.719606,0,2022,301
8.729252,-2,2014,296
8.738898,-8,2003,301
8.748575,0,2012,301
8.758221,8,2015,301
8.768221,1,2008,305
8.777867,-2,2006,291
8.787543,-4,1997,289
8.797189,-2,1997,303
8.806835,8,2003,305
8.816835,1,2005,308
8.826512,-2,2010,314
8.836158,-4,2001,301
8.845834,-2,2003,289
8.855480,7,2014,294
8.865480,-6,2008,307
8.875126,-15,2008,301
8.884772,-6,2008,296
8.894449,-4,2005,303
8.904095,-6,2008,303
8.914095,-4,2012,291
8.923771,1,2005,289
8.933417,1,2005,299
8.943063,0,2008,305
8.952740,-4,2001,314
8.962740,-4,2003,310
8.972386,1,2010,291
8.982032,-8,2014,294
8.991708,-13,2008,298
9.1354,-2,2001,296
9.11354,-4,2003,307
9.21000,3,2008,303
9.30677,5,2008,296
9.40323,-2,2006,299
9.49969,0,2006,301
9.59969,1,2003,287
9.69645,0,2001,291
9.79291,-2,2014,319
9.88937,-6,2014,310
9.98614,-4,2001,301
9.108614,0,2006,314
9.118260,0,2006,301
9.127936,-4,1999,289
9.137582,-2,2008,291
9.147259,5,2017,285
9.157259,5,2010,289
9.166905,19,1992,296
9.176551,14,1989,298
9.186227,-13,1997,291
9.195873,-4,2003,291
9.205873,1,2012,301
9.215519,-4,2015,299
9.225196,3,2001,296
9.234842,1,2001,314
9.244518,-6,2008,316
9.254518,3,2008,292
9.264164,3,2014,307
9.273841,-2,2008,317
9.283487,0,1994,294
9.293133,-6,1999,296
9.303133,-4,2015,312
9.312809,3,2006,294
9.322455,0,2008,289
9.332132,-2,2022,305
9.341778,3,2014,299
9.351778,-2,2001,291
9.361424,-4,1994,299
9.371100,0,1994,310
9.380746,-2,1997,299
9.390423,-2,1997,291
9.400423,-8,1999,292
9.410069,-8,2005,298
9.419715,-4,2015,305
9.429391,-8,2010,303
9.439037,-4,1990,301
9.449037,0,2001,303
9.458714,-6,2010,294
9.468360,-6,1992,287
9.478006,0,1989,292
9.487682,0,1999,303
9.497682,0,2005,299
9.507328,-4,2008,292
9.517005,-8,2006,299
9.526651,0,2008,312
9.536297,1,2006,307
9.546297,-4,2003,296
9.555973,3,2003,303
9.565619,5,2001,292
9.575296,0,2005,292
9.584604,0,2006,314
9.594677,-2,2006,316
9.604677,0,2012,299
9.614323,3,2010,292
9.623999,-8,1996,333
9.633645,-15,1996,348
9.643322,-4,2014,282
9.653322,-4,2022,274
9.662968,3,2008,324
9.672645,8,2019,287
9.682291,-2,2012,264
9.691937,5,1981,303
9.701937,-4,2003,280
9.711613,-61,2028,287
9.721259,-72,1976,466
9.730936,21,2022,267
9.740582,51,2174,-122
9.750582,78,2067,189
9.760228,112,2010,423
9.769904,42,2158,285
9.779550,74,2122,349
9.789227,21,2105,449
9.799227,-174,2174,574
9.808873,-138,2053,667
9.818549,-52,1992,614
9.828195,-50,2103,583
9.837841,-142,2081,608
9.847841,-325,1997,589
9.857518,-425,2021,507
9.867164,-550,1915,458
9.876810,-770,1655,487
9.886486,-941,1798,358
9.896486,-899,1967,235
9.906132,-836,1605,464
9.915809,-991,1394,665
9.925455,-1120,1392,658
9.935101,-1127,1269,740
9.945101,-1133,1223,778
9.954777,-1193,1251,639
9.964423,-1281,1256,649
9.974069,-1295,1251,757
9.983746,-1297,1132,728
9.993746,-1349,915,917
10.3392,-1388,862,1149
10.13068,-1391,928,1023
10.22714,-1381,873,949
10.32360,-1440,780,1005
10.42360,-1540,814,990
10.52037,-1565,751,1085
10.61683,-1607,573,1169
10.71359,-1682,524,1019
10.81005,-1738,449,921
10.91005,-1788,364,889
10.100651,-1797,462,773
10.110328,-1832,407,748
10.119974,-1916,269,687
10.129650,-1943,516,532
10.139650,-1927,735,483
10.149296,-1891,516,498
10.158942,-1829,266,707
10.168619,-1772,151,992
10.178265,-1768,64,1028
10.188265,-1815,103,953
10.197911,-1841,203,739
10.207587,-1872,164,605
10.217233,-1906,58,801
10.226879,-1888,-24,755
10.236879,-1909,-118,539
10.246556,-1929,-172,723
10.256202,-1890,-279,980
10.265848,-1909,-224,1003
10.275524,-1943,21,912
10.285524,-1952,-79,748
10.295170,-1940,-277,639
10.304816,-1872,-367,737
10.314493,-1822,-384,892
10.324139,-1788,-213,921
10.334139,-1738,-190,903
10.343815,-1766,-245,974
10.353461,-1775,-100,894
10.363107,-1736,-4,714
10.372784,-1861,-209,1098
10.382784,-1997,-290,755
10.392430,-2088,-270,-43
10.402076,-2023,-370,621
10.411752,-1852,-279,955
10.421398,-1872,-206,660
10.431398,-1890,-218,762
10.441075,-1886,-220,715
10.450721,-1915,-279,726
10.460367,-1909,-252,765
10.470043,-1918,-192,683
10.480043,-1913,-204,714
10.489689,-1909,-217,769
10.499335,-1913,-90,682
10.509012,-1838,89,696
10.518658,-1770,87,801
10.528658,-1756,49,833
10.538334,-1834,108,819
10.547980,-1998,37,644
10.557657,-2004,-170,591
10.567303,-1934,-140,692
10.577303,-1927,83,682
10.586735,-1884,112,701
10.596625,-1850,69,730
10.606271,-1870,73,723
10.615948,-1909,-33,724
10.625948,-1931,-136,710
10.635594,-1906,-75,726
10.645240,-1879,3,721
10.654916,-1895,3,685
10.664562,-1915,-18,699
10.674562,-1909,-31,724
10.684239,-1872,-22,728
10.693885,-1870,-34,723
10.703561,-1906,-56,719
10.713207,-1906,-45,715
10.723207,-1916,-42,692
10.732884,-1925,-58,689
10.742530,-1911,-67,712
10.752176,-1906,-56,728
10.761852,-1890,-38,746
10.771852,-1891,-67,726
10.781498,-1902,-111,730
10.791175,-1882,-100,771
10.800821,-1893,-108,735
10.810467,-1906,-170,715
10.820467,-1904,-193,740
10.830143,-1925,-209,730
10.839789,-1911,-231,739
10.849466,-1907,-179,714
10.859112,-1931,-133,699
10.869112,-1913,-88,728
10.878788,-1909,-43,662
10.888434,-1918,-67,653
10.898080,-1877,-54,765
10.907757,-1843,7,796
10.917757,-1870,23,751
10.927403,-1895,-2,724
10.937079,-1895,-29,719
10.946725,-1902,-47,732
10.956402,-1902,-56,735
10.966402,-1902,-68,717
10.976048,-1902,-79,717
10.985694,-1895,-75,739
10.995370,-1897,-67,737
11.5016,-1907,-61,724
11.15016,-1916,-45,714
11.24693,-1906,-38,730
11.34339,-1897,-38,746
11.44015,-1900,-24,724
11.53661,-1897,-17,730
11.63661,-1909,-20,699
11.73338,-1915,-25,665
11.82984,-1895,-40,721
11.92630,-1909,-63,730
11.102306,-1927,-77,690
11.112306,-1925,-92,687
11.121952,-1906,-108,748
11.131629,-1881,-106,796
11.141275,-1895,-86,765
11.150921,-1907,-72,726
11.160921,-1909,-84,714
11.170597,-1923,-79,726
11.180243,-1907,-50,733
11.189920,-1900,-50,728
11.199566,-1911,-47,739
11.209566,-1906,-36,742
11.219212,-1907,-45,721
11.228888,-1907,-43,703
11.238534,-1900,-24,719
11.248211,-1895,-18,728
11.258211,-1893,-31,719
11.267857,-1897,-40,735
11.277503,-1904,-34,730
11.287179,-1897,-24,710
11.296825,-1884,-33,726
11.306825,-1895,-45,755
11.316502,-1895,-43,757
11.326148,-1895,-50,735
11.335824,-1911,-33,717
11.345470,-1900,-20,723
11.355470,-1895,-54,732
11.365116,-1904,-58,721
11.374793,-1907,-45,723
11.384439,-1904,-52,739
11.394115,-1902,-61,735
11.404115,-1909,-58,726
11.413761,-1906,-47,724
11.423407,-1911,-36,694
11.433084,-1915,-49,705
11.442730,-1900,-83,735
11.452730,-1906,-74,719
11.462406,-1918,-52,728
11.472052,-1907,-49,728
11.481698,-1906,-42,723
11.491375,-1906,-50,735
11.501375,-1904,-70,726
11.511021,-1925,-81,714
11.520667,-1920,-92,717
11.530343,-1893,-95,732
11.539989,-1907,-86,735
11.549989,-1920,-74,735
11.559635,-1893,-67,737
11.569312,-1881,-74,740
11.578958,-1891,-59,739
11.588604,-1897,-42,732
11.598604,-1895,-63,737
11.608280,-1902,-72,739
11.617926,-1909,-68,733
11.627572,-1902,-68,737
11.637249,-1893,-58,740
11.647249,-1888,-49,740
11.656895,-1897,-65,733
11.666541,-1915,-84,714
11.676218,-1920,-72,701
11.685864,-1932,-54,682
11.695864,-1936,-63,694
11.705510,-1907,-75,724
11.715186,-1906,-70,696
11.724832,-1909,-49,749
11.734478,-1873,-38,846
11.744478,-1882,-40,730
11.754124,-1895,-27,678
11.763801,-1859,-54,821
11.773447,-1870,-67,821
11.783093,-1897,-38,733
11.793093,-1863,-54,785
11.802769,-1825,-70,901
11.812415,-1832,-45,889
11.822061,-1861,-45,803
11.831707,-1850,-77,826
11.841707,-1813,-58,910
11.851384,-1793,-18,933
11.861030,-1786,-47,919
11.870676,-1765,-86,907
11.880352,-1781,-34,894
11.890352,-1834,10,887
11.899998,-1843,-25,874
11.909644,-1834,-31,883
11.919290,-1804,-15,924
11.928967,-1749,-4,951
11.938967,-1740,23,953
11.948613,-1768,48,935
11.958259,-1774,55,908
11.967935,-1768,48,901
11.977581,-1788,23,898
11.987581,-1802,3,917
11.997227,-1811,-15,932
12.6904,-1820,-27,890
12.16550,-1843,-9,848
12.26196,-1865,-8,821
12.36196,-1813,8,821
12.45872,-1786,32,860
12.55518,-1806,19,880
12.65164,-1799,-6,858
12.74841,-1925,-22,817
12.84841,-1981,73,596
12.94487,-1927,32,508
12.104133,-1948,-120,776
12.113809,-1873,-13,832
12.123455,-1907,24,694
12.133455,-1998,-86,678
12.143132,-1945,-108,707
12.152778,-1906,-81,723
12.162424,-1913,-31,732
12.172100,-1909,-24,735
12.182100,-1886,-27,728
12.191746,-1877,8,737
12.201392,-1902,-17,728
12.211069,-1927,-95,705
12.220715,-1922,-108,710
12.230715,-1904,-63,717
12.240361,-1893,-31,710
12.250037,-1895,-42,707
12.259683,-1916,-61,732
12.269329,-1916,-45,755
12.279329,-1886,-40,724
12.289006,-1900,-47,710
12.298652,-1923,-36,715
12.308328,-1902,-27,715
12.317974,-1902,-45,723
12.327974,-1915,-54,717
12.337620,-1902,-36,714
12.347297,-1900,-38,726
12.356943,-1902,-47,737
12.366619,-1893,-42,728
12.376619,-1904,-38,710
12.386265,-1907,-42,726
12.395911,-1898,-43,737
12.405588,-1897,-33,732
12.415234,-1895,-29,746
12.425234,-1897,-45,726
12.434880,-1891,-49,726
12.444556,-1900,-43,755
12.454202,-1915,-42,701
12.463879,-1907,-52,683
12.473879,-1920,-68,732
12.483525,-1915,-50,730
12.493201,-1902,-42,721
12.502847,-1902,-50,726
12.512493,-1890,-47,724
12.522493,-1904,-49,730
12.532170,-1911,-52,726
12.541816,-1900,-49,708
12.551492,-1913,-38,717
12.561138,-1918,-38,737
12.571138,-1911,-65,724
12.580815,-1907,-74,719
12.590092,-1913,-61,726
12.600196,-1922,-63,721
12.609842,-1913,-58,719
12.619488,-1904,-56,710
12.629488,-1909,-63,708
12.639164,-1900,-47,728
12.648810,-1893,-47,724
12.658456,-1909,-72,726
12.668133,-1913,-63,735
12.678133,-1893,-52,723
12.687779,-1890,-68,723
12.697425,-1897,-59,726
12.707101,-1900,-52,714
12.716747,-1909,-58,715
12.726747,-1909,-40,724
12.736393,-1898,-34,732
12.746070,-1902,-52,735
12.755716,-1907,-54,721
12.765362,-1893,-42,724
12.775362,-1897,-49,739
12.785008,-1915,-65,726
12.794684,-1906,-65,724
12.804330,-1902,-54,723
12.814007,-1900,-49,708
12.824007,-1897,-52,719
12.833653,-1918,-52,723
12.843299,-1918,-54,712
12.852975,-1898,-59,719
12.862621,-1898,-45,724
12.872621,-1898,-40,724
12.882267,-1900,-45,719
12.891944,-1902,-42,721
12.901590,-1900,-49,735
12.911266,-1904,-58,733
12.921266,-1907,-54,730
12.930912,-1902,-47,726
12.940558,-1893,-43,724
12.950235,-1900,-42,730
12.959881,-1897,-40,733
12.969881,-1897,-38,724
12.979527,-1906,-38,710
12.989203,-1906,-45,726
12.998849,-1913,-52,730
13.8495,-1904,-47,710
13.18495,-1884,-43,724
13.28172,-1907,-47,739
13.37818,-1922,-50,728
13.47464,-1906,-49,724
13.57140,-1904,-42,728
13.67140,-1906,-42,721
13.76786,-1893,-40,717
13.86432,-1900,-34,723
13.96109,-1911,-43,717
13.105755,-1902,-56,721
13.115755,-1906,-54,728
13.125401,-1906,-52,723
13.135077,-1895,-63,726
13.144723,-1900,-67,732
13.154400,-1906,-52,732
13.164400,-1911,-56,737
13.174046,-1931,-67,732
13.183692,-1920,-54,730
13.193338,-1904,-45,728
13.203014,-1909,-50,730
13.213014,-1900,-50,728
13.222660,-1906,-50,710
13.232337,-1915,-54,719
13.241983,-1904,-56,721
13.251659,-1897,-54,715
13.261659,-1893,-47,732
13.271305,-1893,-34,732
13.280951,-1906,-47,724
13.290628,-1911,-61,726
13.300274,-1906,-56,721
13.310274,-1909,-59,710
13.319920,-1907,-50,712
13.329596,-1897,-47,717
13.339242,-1906,-63,730
13.348888,-1918,-54,726
13.358888,-1907,-45,710
13.368565,-1904,-63,723
13.378211,-1906,-63,717
13.387857,-1906,-56,707
13.397533,-1906,-54,723
13.407533,-1900,-50,728
13.417179,-1897,-56,730
13.426825,-1898,-59,728
13.436502,-1900,-54,732
13.446148,-1909,-56,733
13.456148,-1918,-58,726
13.465794,-1907,-45,728
13.475470,-1904,-36,732
13.485116,-1909,-45,740
13.494793,-1909,-56,739
13.504793,-1911,-58,719
13.514439,-1904,-52,715
13.524085,-1898,-54,724
13.533761,-1904,-58,721
13.543407,-1898,-45,719
13.553407,-1893,-38,721
13.563053,-1898,-43,721
13.572730,-1902,-50,728
13.583016,-1911,-58,728
13.592051,-1907,-47,728
13.602051,-1890,-34,721
13.611728,-1891,-43,717
13.621374,-1913,-56,726
13.631050,-1909,-65,724
13.640696,-1895,-68,724
13.650696,-1907,-61,732
13.660342,-1920,-54,732
13.670019,-1911,-58,728
13.679665,-1900,-54,728
13.689311,-1895,-49,719
13.699311,-1902,-47,721
13.708987,-1906,-42,721
13.718633,-1897,-45,715
13.728310,-1904,-50,723
13.737956,-1904,-50,719
13.747956,-1900,-45,723
13.757602,-1909,-52,732
13.767278,-1907,-72,719
13.776924,-1915,-68,719
13.786570,-1915,-49,712
13.796570,-1895,-40,708
13.806247,-1893,-47,717
13.815893,-1900,-54,712
13.825539,-1898,-49,705
13.835215,-1904,-45,710
13.845215,-1907,-52,717
13.854861,-1906,-56,726
13.864538,-1897,-56,724
13.874184,-1891,-49,724
13.883860,-1907,-52,724
13.893860,-1902,-58,723
13.903506,-1893,-56,719
13.913152,-1909,-65,717
13.922829,-1902,-61,726
13.932475,-1897,-56,728
13.942475,-1913,-61,721
13.952121,-1904,-52,733
13.961797,-1897,-54,733
13.971443,-1902,-75,717
13.981089,-1907,-54,719
13.991089,-1911,-20,735
14.766,-1907,-45,749
14.10412,-1902,-65,737
14.20058,-1904,-56,719
14.29734,-1920,-56,723
14.39734,-1913,-56,730
14.49380,-1900,-54,728
14.59057,-1918,-56,723
14.68703,-1898,-45,708
14.78349,-1866,-33,710
14.88349,-1888,-36,732
14.98025,-1907,-54,721
14.107671,-1902,-68,708
14.117348,-1902,-68,726
14.126994,-1902,-67,735
14.136994,-1900,-67,735
14.146670,-1902,-61,733
14.156316,-1900,-59,726
14.165962,-1907,-59,724
14.175639,-1906,-52,726
14.185639,-1902,-56,717
14.195285,-1916,-68,723
14.204931,-1916,-65,728
14.214607,-1907,-54,721
14.224253,-1906,-61,719
14.234253,-1904,-72,717
14.243930,-1911,-67,724
14.253576,-1916,-61,739
14.263222,-1902,-59,742
14.272898,-1895,-58,732
14.282898,-1898,-59,726
14.292544,-1904,-61,737
14.302190,-1913,-68,742
14.311867,-1913,-68,739
14.321513,-1906,-68,724
14.331513,-1895,-67,712
14.341159,-1890,-70,719
14.350835,-1904,-72,732
14.360481,-1915,-65,721
14.370127,-1911,-61,712
14.380127,-1904,-59,719
14.389804,-1890,-50,719
14.399450,-1895,-49,717
14.409126,-1898,-42,715
14.418772,-1886,-34,719
14.428772,-1886,-33,717
14.438418,-1895,-43,717
14.448095,-1891,-56,728
14.457741,-1884,-50,728
14.467417,-1893,-56,715
14.477417,-1909,-77,705
14.487063,-1907,-81,703
14.496709,-1897,-68,717
14.506386,-1895,-68,723
14.516032,-1900,-83,714
14.526032,-1906,-68,710
14.535708,-1895,-43,708
14.545354,-1888,-49,714
14.555000,-1895,-58,728
14.564677,-1902,-50,740
14.574677,-1893,-38,726
14.584323,-1893,-38,696
14.593969,-1909,-47,707
14.603645,-1900,-49,724
14.613291,-1888,-50,710
14.623291,-1891,-49,715
14.632968,-1898,-65,730
14.642614,-1902,-79,732
14.652260,-1893,-72,737
14.661937,-1902,-68,724
14.671937,-1913,-68,721
14.681583,-1900,-65,737
14.691259,-1891,-61,724
14.700905,-1891,-61,712
14.710551,-1895,-56,719
14.720551,-1902,-54,721
14.730228,-1893,-72,717
14.739874,-1904,-70,723
14.749520,-1916,-65,730
14.759196,-1898,-65,728
14.769196,-1902,-43,730
14.778842,-1911,-43,728
14.788519,-1895,-56,708
14.798165,-1890,-50,708
14.807811,-1907,-56,723
14.817811,-1922,-50,726
14.827487,-1904,-40,724
14.837133,-1891,-50,719
14.846810,-1895,-59,715
14.856456,-1904,-67,710
14.866456,-1907,-70,724
14.876132,-1890,-50,735
14.885778,-1884,-42,719
14.895424,-1904,-54,715
14.905101,-1897,-52,714
14.915101,-1893,-56,714
14.924747,-1907,-65,730
14.934423,-1900,-52,730
14.944069,-1893,-54,715
14.953715,-1900,-68,723
14.963715,-1897,-63,724
14.973392,-1895,-59,707
14.983038,-1904,-74,712
14.992714,-1900,-74,721
15.2360,-1902,-59,719
15.12360,-1913,-63,726
15.22037,-1902,-58,726
15.31683,-1895,-47,717
15.41359,-1902,-52,723
15.51005,-1897,-63,724
15.61005,-1898,-65,717
15.70651,-1918,-67,728
15.80328,-1913,-67,739
15.89974,-1890,-58,737
15.99650,-1915,-52,726
15.109650,-1934,-56,719
15.119296,-1902,-56,717
15.128973,-1902,-52,719
15.138619,-1916,-59,712
15.148295,-1902,-61,710
15.158295,-1902,-63,723
15.167941,-1909,-68,719
15.177618,-1898,-67,724
15.187264,-1898,-68,742
15.196910,-1902,-65,724
15.206910,-1897,-58,710
15.216586,-1906,-61,726
15.226232,-1904,-65,721
15.235909,-1893,-61,723
15.245555,-1895,-58,730
15.255555,-1895,-56,717
15.265231,-1893,-58,723
15.274877,-1898,-63,728
15.284523,-1902,-65,719
15.294200,-1893,-54,715
15.304200,-1895,-49,721
15.313846,-1907,-54,728
15.323522,-1911,-56,728
15.333168,-1909,-63,714
15.342845,-1898,-74,712
15.352845,-1898,-72,726
15.362491,-1906,-63,733
15.372137,-1893,-59,732
15.381813,-1888,-50,728
15.391459,-1902,-54,721
15.401459,-1900,-70,721
15.411136,-1898,-61,742
15.420782,-1913,-59,748
15.430458,-1909,-81,726
15.440104,-1897,-74,724
15.450104,-1900,-56,724
15.459750,-1913,-67,705
15.469427,-1902,-65,705
15.479073,-1893,-54,728
15.488749,-1897,-58,728
15.498749,-1902,-58,714
15.508395,-1909,-56,715
15.518041,-1904,-45,719
15.527718,-1900,-36,724
15.537364,-1906,-45,717
15.547364,-1893,-58,705
15.557040,-1888,-61,715
15.566686,-1904,-72,728
15.576332,-1902,-79,733
15.585640,-1904,-68,728
15.595744,-1913,-63,724
15.605744,-1900,-70,717
15.615390,-1907,-70,707
15.625036,-1902,-59,719
15.634712,-1897,-54,735
15.644358,-1900,-59,732
15.654358,-1886,-47,730
15.664035,-1909,-65,728
15.673681,-1911,-90,708
15.683327,-1900,-63,699
15.693003,-1911,-54,710
15.703003,-1897,-63,723
15.712649,-1900,-63,730
15.722326,-1898,-65,723
15.731972,-1888,-56,715
15.741648,-1904,-49,714
15.751648,-1909,-50,717
15.761294,-1893,-59,728
15.770971,-1886,-59,726
15.780617,-1900,-54,714
15.790263,-1909,-58,730
15.800263,-1902,-61,735
15.809939,-1900,-54,710
15.819585,-1897,-42,719
15.829262,-1904,-47,739
15.838908,-1913,-67,735
15.848908,-1900,-74,733
15.858584,-1895,-65,742
15.868230,-1904,-59,730
15.877876,-1900,-56,714
15.887553,-1904,-56,712
15.897553,-1913,-56,705
15.907199,-1904,-50,707
15.916875,-1902,-67,710
15.926521,-1902,-77,721
15.936198,-1898,-61,732
15.946198,-1906,-54,728
15.955844,-1913,-61,719
15.965490,-1907,-58,714
15.975166,-1893,-38,717
15.984812,-1895,-24,721
15.994812,-1904,-33,728
16.4489,-1898,-47,739
16.14135,-1902,-56,746
16.23812,-1920,-72,732
16.33458,-1920,-81,719
16.43458,-1909,-79,724
16.53134,-1906,-79,726
16.62780,-1916,-72,719
16.72426,-1913,-70,712
16.82103,-1898,-77,714
16.92103,-1890,-67,708
16.101749,-1886,-52,712
16.111425,-1900,-42,726
16.121071,-1897,-34,717
16.130748,-1891,-43,710
16.140748,-1909,-56,715
16.150394,-1900,-50,721
16.160070,-1891,-54,733
16.169716,-1900,-74,719
16.179362,-1902,-77,712
16.189362,-1911,-72,726
16.199039,-1915,-83,719
16.208685,-1907,-77,726
16.218361,-1907,-63,737
16.228007,-1913,-59,719
16.238007,-1909,-52,714
16.247684,-1906,-52,719
16.257330,-1915,-58,730
16.267006,-1907,-59,739
16.276652,-1898,-59,723
16.286652,-1909,-61,710
16.296329,-1907,-56,721
16.305975,-1900,-54,733
16.315651,-1904,-58,723
16.325297,-1898,-58,714
16.335297,-1898,-56,726
16.344974,-1897,-63,715
16.354620,-1904,-74,705
16.364266,-1906,-65,726
16.373942,-1897,-54,715
16.383942,-1906,-56,708
16.393588,-1900,-50,732
16.403265,-1893,-49,726
16.412911,-1902,-47,730
16.422587,-1904,-50,737
16.432587,-1897,-59,707
16.442233,-1891,-54,708
16.451910,-1893,-67,719
16.461556,-1897,-74,714
16.471232,-1897,-58,728
16.481232,-1893,-67,710
16.490878,-1895,-63,692
16.500524,-1911,-61,732
16.510201,-1915,-74,742
16.519847,-1904,-75,733
16.529847,-1911,-77,740
16.539523,-1920,-70,726
16.549169,-1904,-65,712
16.558846,-1898,-58,721
16.568492,-1906,-54,728
16.578492,-1902,-45,723
16.588077,-1900,-36,712
16.597814,-1897,-42,705
16.607491,-1895,-47,712
16.617137,-1907,-50,730
16.627137,-1911,-56,732
16.636783,-1904,-58,730
16.646459,-1902,-59,733
16.656105,-1909,-67,732
16.665782,-1906,-68,717
16.675782,-1902,-65,715
16.685428,-1920,-68,730
16.695104,-1918,-74,726
16.704750,-1893,-70,726
16.714396,-1909,-70,726
16.724396,-1918,-74,712
16.734073,-1897,-65,712
16.743719,-1900,-54,730
16.753395,-1907,-59,726
16.763041,-1897,-65,715
16.773041,-1895,-67,724
16.782718,-1900,-70,728
16.792364,-1898,-63,721
16.802040,-1909,-61,721
16.811686,-1916,-63,737
16.821686,-1907,-68,732
16.831332,-1902,-75,714
16.841009,-1906,-65,714
16.850655,-1909,-68,739
16.860331,-1902,-81,740
16.870331,-1902,-65,710
16.879977,-1906,-54,742
16.889654,-1900,-43,732
16.899300,-1897,-42,657
16.908976,-1900,-65,708
16.918976,-1909,-68,776
16.928622,-1911,-63,721
16.938299,-1907,-61,707
16.947945,-1898,-47,735
16.957591,-1906,-58,707
16.967591,-1913,-68,703
16.977267,-1898,-56,703
16.986913,-1902,-59,696
16.996590,-1916,-68,726
17.6236,-1904,-59,735
17.16236,-1893,-56,726
17.25912,-1909,-70,740
17.35558,-1915,-75,733
17.45204,-1898,-54,719
17.54881,-1902,-43,705
17.64881,-1909,-52,687
17.74527,-1906,-36,698
17.84173,-1907,-27,712
17.93849,-1907,-43,705
17.103495,-1909,-54,705
17.113495,-1916,-58,714
17.123172,-1906,-63,714
17.132818,-1911,-74,721
17.142464,-1925,-59,708
17.152140,-1918,-59,712
17.162140,-1907,-47,749
17.171786,-1886,39,712
17.181463,-1891,35,715
17.191109,-1918,-68,782
17.200785,-1925,-124,757
17.210785,-1945,-152,732
17.220431,-1961,-111,721
17.230077,-1934,1,635
17.239754,-1891,-11,694
17.249400,-1893,-63,819
17.259400,-1911,10,635
17.269076,-1913,-8,503
17.278722,-1938,-124,667
17.288399,-1941,-131,732
17.298045,-1934,-54,624
17.308045,-1943,-4,583
17.317721,-1945,-27,617
17.327367,-1965,-72,601
17.337013,-1954,-58,589
17.346690,-1927,-29,573
17.356690,-1950,-42,548
17.366336,-1959,-58,571
17.376012,-1927,-38,549
17.385658,-1925,-43,619
17.395335,-1950,-45,655
17.405335,-1972,3,483
17.414981,-1959,-11,519
17.424627,-1929,-59,658
17.434303,-1956,-88,582
17.443949,-1997,-118,533
17.453949,-1984,-120,548
17.463626,-1961,-147,524
17.473272,-1970,-167,485
17.482948,-1986,-140,421
17.492594,-1995,-131,408
17.502594,-1991,-117,457
17.512240,-1968,-118,526
17.521917,-1990,-152,549
17.531563,-2002,-142,523
17.541239,-1945,-113,553
17.551239,-1950,-104,512
17.560885,-1986,-92,419
17.570562,-1977,-102,469
17.580208,-1988,-134,512
17.589854,-2004,-150,474
17.599854,-1986,-150,508
17.609530,-1998,-158,473
17.619176,-2034,-168,396
17.628853,-2027,-152,383
17.638499,-2016,-124,316
17.648499,-2002,-120,362
17.658176,-1990,-122,439
17.667822,-2004,-97,385
17.677468,-2043,-99,264
17.687144,-2034,-184,274
17.697144,-1973,-179,499
17.706790,-2061,-61,273
17.716467,-2095,-109,133
17.726113,-1975,-122,391
17.735789,-2032,-43,253
17.745789,-2093,-100,289
17.755435,-2045,-111,319
17.765112,-2036,-20,80
17.774758,-2031,32,148
17.784404,-2048,55,249
17.794404,-2020,-49,223
17.804080,-1943,-149,110
17.813726,-1959,78,-34
17.823403,-1993,137,-61
17.833049,-2027,-34,-54
17.843049,-2045,-13,-29
17.852695,-2043,41,60
17.862371,-2057,41,80
17.872017,-2040,5,35
17.881694,-2047,-22,42
17.891694,-2038,-29,1
17.901340,-2041,-9,-6
17.911016,-2079,-22,30
17.920662,-2059,-83,-33
17.930339,-2038,-54,-49
17.940339,-2047,3,-8
17.949985,-2052,-9,-24
17.959631,-2036,-36,-84
17.969307,-2041,-45,-108
17.978953,-2048,-29,-147
17.988953,-2048,-15,-274
17.998630,-2029,-42,-350
18.8276,-1965,-54,-368
18.17952,-1993,-31,-354
18.27598,-2023,-25,-329
18.37598,-1997,-18,-367
18.47275,-2027,-50,-361
18.56921,-2022,-133,-327
18.66567,-1966,-159,-418
18.76243,-1941,-167,-495
18.86243,-1945,-186,-463
18.95889,-1886,-186,-572
18.105566,-1856,-104,-718
18.115212,-1850,-58,-750
18.124888,-1772,-174,-756
18.134888,-1820,-233,-654
18.144534,-1925,-177,-606
18.154180,-1943,-143,-733
18.163857,-1900,-163,-836
18.173503,-1861,-149,-922
18.183503,-1836,-129,-1013
18.193179,-1800,-159,-1095
18.202825,-1866,-79,-1170
18.212502,-1898,-38,-1059
18.222148,-1857,-181,-916
18.232148,-1747,-265,-986
18.241824,-1600,-315,-1049
18.251470,-1575,-350,-1068
18.261147,-1536,-270,-1202
18.270793,-1427,-409,-1261
18.280793,-1368,-552,-1279
18.290469,-1465,-375,-1279
18.300115,-1618,-399,-1145
18.309792,-1713,-467,-1104
18.319438,-1699,-424,-1145
18.329438,-1586,-515,-1140
18.339084,-1407,-625,-1129
18.348760,-1418,-488,-1429
18.358406,-1843,-199,-1597
18.368083,-1911,-365,-1200
18.378083,-1545,-540,-1209
18.387729,-1415,-388,-1474
18.397405,-1318,-449,-1438
18.407051,-1232,-538,-1449
18.416697,-1243,-495,-1491
18.426697,-1261,-406,-1504
18.436374,-1284,-349,-1500
18.446020,-1286,-379,-1545
18.455696,-1316,73,-1636
18.465342,-1129,-49,-1550
18.475342,-915,-954,-1493
18.485019,-904,-465,-1695
18.494665,-825,214,-1813
18.504311,-915,-208,-1722
18.513987,-1134,-470,-1747
18.523987,-1063,-222,-1916
18.533664,-895,-36,-1956
18.543310,-916,-42,-1920
18.552956,-943,14,-1875
18.562632,-897,14,-1841
18.572632,-758,28,-1877
18.582278,-624,53,-1893
18.591586,-558,33,-1856
18.601690,-436,42,-1829
18.611336,-440,64,-1840
18.621012,-474,74,-1872
18.631012,-513,57,-1927
18.640658,-674,-13,-1941
18.650335,-613,-29,-1959
18.659981,-500,24,-2004
18.669657,-574,-34,-1957
18.679657,-399,-2,-1975
18.689303,-249,-18,-1904
18.698980,-277,-4,-1872
18.708626,-165,287,-1929
18.718272,-606,-431,-1550
18.728272,-174,516,-2263
18.737948,1214,2678,-3002
18.747594,587,1007,-2173
18.757271,-197,-374,-2023
18.766917,98,153,-2141
18.776917,3,-154,-1965
18.786593,49,-159,-2077
18.796239,128,-17,-2032
18.805916,35,-49,-1990
18.815562,48,-36,-2040
18.825562,66,-54,-2068
18.835239,51,-38,-2036
18.844885,39,-22,-2013
18.854561,41,-31,-2047
18.864207,48,-29,-2054
18.874207,41,-25,-2041
18.883884,41,-27,-2022
18.893530,48,-20,-2020
18.903206,42,-20,-2036
18.912852,39,-36,-2022
18.922852,37,-38,-2022
18.932498,39,-22,-2038
18.942175,44,-22,-2040
18.951821,46,-29,-2020
18.961467,51,-29,-2027
18.971467,49,-33,-2070
18.981143,44,-38,-2061
18.990789,42,-34,-2025
19.466,42,-29,-2029
19.10112,42,-25,-2045
19.20112,39,-27,-2029
19.29788,35,-29,-2025
19.39434,44,-27,-2041
19.49111,48,-31,-2040
19.58757,42,-29,-2036
19.68757,41,-24,-2022
19.78433,42,-29,-2031
19.88079,46,-24,-2050
19.97756,42,-17,-2043
19.107402,42,-25,-2032
19.117402,51,-31,-2029
19.127078,46,-27,-2038
19.136724,33,-36,-2040
19.146370,37,-40,-2040
19.156047,46,-33,-2045
19.166047,51,-31,-2032
19.175693,39,-22,-2027
19.185369,30,-24,-2013
19.195015,44,-33,-2015
19.204692,49,-33,-2048
19.214692,39,-31,-2034
19.224338,37,-31,-2002
19.234014,42,-31,-2013
19.243660,46,-31,-2038
19.253337,37,-33,-2045
19.263337,32,-31,-2041
19.272983,42,-24,-2036
19.282659,55,-24,-2027
19.292305,49,-25,-2027
19.301982,37,-29,-2040
19.311982,32,-38,-2043
19.321628,30,-42,-2027
19.331304,39,-42,-2020
19.340950,44,-36,-2032
19.350627,41,-34,-2036
19.360627,44,-38,-2038
19.370273,42,-34,-2050
19.379949,46,-29,-2048
19.389595,41,-25,-2029
19.399272,32,-25,-2013
19.409272,39,-27,-2031
19.418918,44,-31,-2059
19.428594,37,-34,-2043
19.438240,41,-33,-2020
19.447886,41,-31,-2029
19.457886,42,-33,-2025
19.467563,44,-31,-2015
19.477209,42,-38,-2032
19.486885,51,-36,-2043
19.496531,51,-20,-2034
19.506531,44,-29,-2027
19.516208,48,-36,-2034
19.525854,44,-25,-2038
19.535530,49,-31,-2040
19.545176,60,-36,-2050
19.555176,51,-31,-2038
19.564853,39,-25,-2018
19.574499,37,-25,-2029
19.584357,39,-29,-2023
19.593851,42,-29,-2016
19.603527,49,-27,-2027
19.613527,48,-24,-2025
19.623173,42,-25,-2027
19.632850,41,-25,-2031
19.642496,42,-24,-2031
19.652172,41,-34,-2038
19.662172,32,-34,-2034
19.671818,41,-24,-2027
19.681464,58,-22,-2034
19.691141,53,-29,-2047
19.700787,42,-33,-2043
19.710787,48,-33,-2031
19.720463,55,-25,-2034
19.730109,51,-18,-2047
19.739786,55,-24,-2048
19.749432,53,-33,-2034
19.759432,42,-31,-2023
19.769078,37,-36,-2038
19.778754,39,-42,-2041
19.788400,41,-43,-2038
19.798077,46,-34,-2043
19.808077,44,-24,-2045
19.817723,35,-31,-2038
19.827399,41,-34,-2047
19.837045,51,-18,-2047
19.846691,44,-18,-2027
19.856691,41,-29,-2034
19.866368,35,-29,-2036
19.876014,39,-29,-2023
19.885690,49,-27,-2029
19.895336,42,-27,-2027
19.905336,37,-34,-2036
19.915013,39,-31,-2043
19.924659,42,-24,-2032
19.934335,46,-31,-2038
19.943981,44,-34,-2048
19.953981,44,-29,-2038
19.963627,46,-27,-2025
19.973304,53,-25,-2036
19.982950,44,-31,-2043
19.992626,28,-36,-2023
20.2626,42,-29,-2025
20.12272,49,-33,-2047
20.21949,37,-34,-2047
20.31595,37,-31,-2034
20.41241,39,-31,-2043
20.51241,35,-25,-2029
20.60917,26,-22,-2009
20.70563,39,-25,-2031
20.80240,53,-24,-2034
20.89886,44,-29,-2029
20.99886,42,-43,-2034
20.109562,46,-40,-2029
20.119208,49,-29,-2045
20.128885,51,-33,-2041
20.138531,41,-31,-2027
20.148531,37,-25,-2041
20.158207,42,-24,-2032
20.167853,39,-31,-2022
20.177530,41,-34,-2040
20.187206,41,-34,-2034
20.197206,33,-42,-2020
20.206852,37,-43,-2029
20.216529,44,-29,-2022
20.226175,44,-25,-2016
20.235851,48,-36,-2036
20.245851,48,-34,-2045
20.255497,41,-29,-2043
20.265174,35,-33,-2045
20.274820,42,-29,-2043
20.284466,37,-24,-2029
20.294466,21,-27,-2025
20.304142,35,-25,-2029
20.313788,44,-24,-2025
20.323465,33,-22,-2031
20.333111,48,-25,-2045
20.343111,49,-34,-2041
20.352787,32,-31,-2025
20.362433,46,-25,-2036
20.372110,51,-33,-2038
20.381756,42,-40,-2023
20.391756,46,-36,-2036
20.401402,42,-27,-2043
20.411078,44,-27,-2036
20.420724,41,-29,-2036
20.430401,37,-33,-2038
20.440401,42,-31,-2031
20.450047,35,-29,-2022
20.459693,33,-38,-2020
20.469369,37,-31,-2038
20.479015,44,-25,-2041
20.489015,66,-34,-2015
20.498692,53,-31,-2022
20.508338,32,-31,-2045
20.518014,42,-34,-2040
20.527660,49,-29,-2036
20.537660,48,-27,-2031
20.547337,41,-31,-2016
20.556983,35,-34,-2018
20.566659,33,-34,-2027
20.576305,39,-31,-2031
20.586305,46,-34,-2036
20.595982,42,-47,-2027
20.605628,33,-43,-2027
20.615274,46,-24,-2038
20.624950,51,-22,-2036
20.634950,33,-27,-2020
20.644596,42,-20,-2022
20.654273,49,-22,-2038
20.663919,48,-33,-2027
20.673595,49,-27,-2027
20.683595,33,-29,-2050
20.693241,41,-38,-2048
20.702918,49,-24,-2047
20.712564,44,-20,-2041
20.722240,44,-34,-2029
20.732240,39,-36,-2034
20.741886,35,-36,-2020
20.751563,35,-31,-2018
20.761209,32,-27,-2036
20.770885,41,-31,-2027
20.780885,51,-27,-2031
20.790531,49,-22,-2045
20.800177,49,-36,-2036
20.809854,49,-40,-2034
20.819530,46,-24,-2038
20.829530,46,-27,-2034
20.839176,37,-34,-2029
20.848822,39,-33,-2020
20.858499,49,-33,-2040
20.868145,44,-29,-2057
20.878145,41,-25,-2040
20.887822,48,-34,-2032
20.897468,46,-33,-2031
20.907144,48,-25,-2023
20.916790,49,-31,-2032
20.926790,35,-31,-2043
20.936467,35,-25,-2041
20.946113,39,-31,-2023
20.955789,41,-25,-2013
20.965435,44,-15,-2025
20.975435,41,-25,-2036
20.985081,41,-36,-2032
20.994758,46,-20,-2031
21.4404,44,-27,-2038
21.14080,32,-40,-2032
21.24080,35,-25,-2023
21.33726,51,-24,-2034
21.43403,44,-29,-2040
21.53049,39,-25,-2031
21.62725,44,-29,-2023
21.72725,39,-36,-2029
21.82371,35,-47,-2045
21.92048,42,-49,-2041
21.101694,46,-34,-2027
21.111370,41,-25,-2027
21.121370,39,-25,-2027
21.131016,41,-22,-2023
21.140693,41,-24,-2027
21.150339,41,-25,-2032
21.160015,37,-22,-2029
21.170015,30,-25,-2031
21.179661,35,-29,-2031
21.189338,41,-33,-2027
21.198984,41,-27,-2038
21.208660,49,-24,-2041
21.218660,53,-31,-2038
21.228306,39,-27,-2043
21.237983,35,-25,-2043
21.247629,39,-34,-2038
21.257305,48,-29,-2025
21.267305,51,-22,-2016
21.276951,39,-36,-2027
21.286628,35,-50,-2023
21.296274,42,-36,-2032
21.305950,41,-24,-2038
21.315950,35,-38,-2022
21.325596,39,-34,-2031
21.335273,48,-25,-2032
21.344919,51,-29,-2034
21.354595,48,-24,-2056
21.364595,41,-24,-2052
21.374241,42,-36,-2032
21.383887,51,-33,-2036
21.393564,46,-25,-2031
21.403210,30,-33,-2016
21.413210,30,-33,-2027
21.422886,39,-33,-2036
21.432532,37,-25,-2034
21.442209,44,-22,-2027
21.451855,49,-38,-2027
21.461855,46,-36,-2041
21.471501,42,-24,-2043
21.481177,28,-29,-2036
21.490823,26,-38,-2027
21.500500,49,-36,-2027
21.510500,48,-29,-2036
21.520146,39,-27,-2029
21.529822,44,-34,-2029
21.539468,41,-34,-2041
21.549145,39,-29,-2038
21.559145,42,-22,-2038
21.568791,42,-18,-2045
21.578437,46,-31,-2025
21.587775,49,-34,-2016
21.597848,51,-25,-2032
21.607494,48,-31,-2032
21.617494,37,-38,-2034
21.627171,41,-27,-2050
21.636817,46,-27,-2038
21.646493,39,-36,-2020
21.656139,39,-29,-2023
21.666139,44,-27,-2022
21.675785,42,-24,-2025
21.685462,41,-22,-2036
21.695108,42,-29,-2032
21.704784,41,-36,-2029
21.714784,42,-31,-2029
21.724430,46,-25,-2031
21.734107,39,-34,-2031
21.743753,51,-33,-2036
21.753429,60,-27,-2036
21.763429,41,-27,-2034
21.773075,44,-22,-2034
21.782752,48,-31,-2040
21.792398,35,-42,-2031
21.802044,35,-34,-2020
21.812044,46,-33,-2023
21.821720,42,-33,-2027
21.831366,39,-29,-2038
21.841043,42,-29,-2038
21.850689,44,-29,-2020
21.860689,57,-29,-2027
21.870365,57,-25,-2036
21.880011,37,-22,-2034
21.889688,42,-24,-2034
21.899334,48,-29,-2038
21.909334,32,-36,-2038
21.918980,33,-33,-2038
21.928656,44,-33,-2038
21.938302,42,-36,-2040
21.947979,41,-31,-2043
21.957979,41,-31,-2036
21.967625,37,-36,-2034
21.977271,41,-34,-2038
21.986947,48,-20,-2022
21.996593,42,-13,-2023
22.6593,35,-25,-2040
22.16270,46,-29,-2032
22.25916,51,-29,-2034
22.35593,49,-31,-2041
22.45239,49,-25,-2025
22.55239,39,-27,-2025
22.64915,37,-36,-2045
22.74561,44,-40,-2050
22.84238,51,-31,-2041
22.93884,49,-24,-2036
22.103884,35,-33,-2031
22.113530,41,-34,-2023
22.123206,49,-27,-2031
22.132852,49,-29,-2041
22.142529,41,-33,-2031
22.152529,42,-29,-2020
22.162175,57,-25,-2015
22.171851,49,-24,-2025
22.181497,35,-31,-2043
22.191143,30,-34,-2045
22.201143,35,-29,-2040
22.210820,44,-27,-2034
22.220466,41,-25,-2034
22.230142,41,-22,-2036
22.239788,42,-27,-2031
22.249788,42,-36,-2022
22.259465,53,-34,-2032
22.269111,55,-29,-2045
22.278787,42,-34,-2032
22.288433,46,-25,-2032
22.298433,51,-18,-2050
22.308079,41,-24,-2041
22.317756,33,-33,-2023
22.327402,33,-38,-2029
22.337078,39,-31,-2025
22.347078,41,-25,-2022
22.356724,44,-36,-2041
22.366401,49,-36,-2041
22.376047,48,-27,-2041
22.385723,39,-24,-2048
22.395723,39,-34,-2034
22.405369,46,-40,-2040
22.415015,48,-31,-2036
22.424692,42,-31,-2018
22.434338,51,-33,-2023
22.444338,55,-24,-2020
22.454014,48,-27,-2022
22.463660,42,-45,-2023
22.473337,37,-38,-2020
22.482983,44,-22,-2041
22.492983,44,-31,-2043
22.502659,35,-29,-2025
22.512305,46,-18,-2036
22.521982,49,-24,-2032
22.531628,41,-31,-2013
22.541628,41,-34,-2018
22.551304,39,-31,-2029
22.560950,44,-24,-2032
22.570627,44,-33,-2025
22.580638,41,-33,-2036
22.590638,46,-25,-2047
22.599978,42,-29,-2029
22.609624,33,-34,-2023
22.619301,37,-29,-2038
22.628947,46,-25,-2043
22.638947,49,-34,-2036
22.648624,55,-31,-2029
22.658270,51,-27,-2032
22.667946,39,-31,-2031
22.677592,46,-33,-2032
22.687592,44,-43,-2045
22.697269,39,-38,-2029
22.706915,46,-29,-2022
22.716561,44,-31,-2038
22.726237,44,-20,-2040
22.736237,48,-27,-2040
22.745883,35,-40,-2034
22.755560,37,-27,-2023
22.765206,48,-25,-2016
22.774882,39,-33,-2018
22.784882,39,-29,-2023
22.794528,41,-29,-2022
22.804205,32,-29,-2038
22.813851,42,-22,-2050
22.823527,49,-31,-2038
22.833527,37,-38,-2036
22.843173,41,-29,-2048
22.852850,48,-24,-2034
22.862496,41,-29,-2018
22.872142,37,-25,-2027
22.882142,39,-25,-2031
22.891818,37,-25,-2027
22.901464,35,-17,-2023
22.911141,48,-18,-2031
22.920787,55,-31,-2040
22.930787,44,-34,-2031
22.940463,49,-31,-2023
22.950109,49,-29,-2031
22.959755,39,-29,-2027
22.969432,35,-29,-2022
22.979432,33,-29,-2027
22.989078,39,-33,-2027
22.998754,39,-34,-2025
23.8400,39,-33,-2023
23.18077,35,-31,-2022
23.28077,39,-29,-2034
23.37723,55,-29,-2045
23.47399,51,-36,-2038
23.57045,32,-40,-2040
23.66691,30,-40,-2041
23.76691,41,-31,-2029
23.86368,41,-27,-2023
23.96014,39,-27,-2015
23.105690,39,-17,-2016
23.115336,35,-17,-2038
23.125336,41,-29,-2041
23.135013,48,-27,-2031
23.144659,35,-22,-2038
23.154305,-4,-4,-2048
23.163981,1,-9,-2034
23.173981,73,-61,-2023
23.183658,96,-65,-2034
23.193304,58,-34,-2041
23.202950,42,-33,-2036
23.212626,44,-29,-2036
23.222626,48,-25,-2032
23.232272,42,-34,-2025
23.241949,44,-36,-2034
23.251595,46,-31,-2034
23.261271,44,-27,-2032
23.271271,44,-27,-2038
23.280917,44,-29,-2038
23.290594,30,-9,-2038
23.300240,7,26,-2029
23.309886,37,-24,-2025
23.319886,89,-108,-2045
23.329562,60,-68,-2043
23.339208,30,-24,-2023
23.348885,41,-36,-2029
23.358531,44,-31,-2050
23.368531,49,-34,-2040
23.378207,42,-36,-2022
23.387853,41,-31,-2034
23.397530,49,-36,-2038
23.407176,44,-31,-2036
23.417176,44,-25,-2041
23.426852,39,-34,-2034
23.436498,39,-36,-2036
23.446175,44,-29,-2045
23.455821,42,-33,-2041
23.465821,41,-33,-2036
23.475467,42,-24,-2041
23.485143,39,-24,-2043
23.494789,33,-36,-2032
23.504466,37,-42,-2020
23.514466,41,-34,-2015
23.524112,33,-31,-2023
23.533788,32,-34,-2011
23.543434,44,-36,-2013
23.553111,53,-31,-2040
23.563111,51,-27,-2036
23.572757,39,-27,-2025
23.582433,42,-25,-2034
23.592079,48,-31,-2034
23.601725,41,-25,-2023
23.611725,41,-18,-2020
23.621402,39,-33,-2023
23.631078,41,-33,-2023
23.640724,46,-33,-2027
23.650370,39,-42,-2047
23.660370,39,-33,-2050
23.670047,46,-25,-2036
23.679693,42,-25,-2027
23.689369,39,-27,-2020
23.699015,41,-31,-2034
23.709015,33,-29,-2045
23.718692,37,-33,-2036
23.728338,42,-36,-2036
23.738014,33,-27,-2023
23.747660,44,-17,-2022
23.757660,53,-27,-2041
23.767337,39,-40,-2025
23.776983,33,-29,-2022
23.786659,41,-29,-2040
23.796305,41,-38,-2031
23.806305,42,-33,-2032
23.815982,39,-47,-2040
23.825628,35,-49,-2029
23.835304,42,-31,-2038
23.844950,42,-25,-2047
23.854950,42,-29,-2040
23.864627,49,-36,-2038
23.874273,44,-29,-2029
23.883949,39,-18,-2013
23.893626,46,-27,-2015
23.903626,46,-34,-2020
23.913272,39,-31,-2034
23.922918,46,-20,-2054
23.932594,49,-17,-2041
23.942240,37,-25,-2043
23.952240,33,-33,-2054
23.961917,39,-27,-2029
23.971563,32,-25,-2023
23.981239,32,-31,-2043
23.990916,44,-27,-2038
24.916,42,-18,-2025
24.10562,42,-29,-2027
24.20239,49,-36,-2034
24.29885,26,23,-2052
24.39561,66,-127,-2050
24.49561,35,30,-2031
24.59207,-13,116,-2032
24.68884,192,-595,-2041
24.78530,-413,1551,-2043
24.88206,-1415,3135,-2029
24.98206,-615,-81,-2259
24.107852,1265,-29,-2209
24.117529,1596,2287,-1711
24.127175,619,1374,-1827
24.136851,224,630,-2045
24.146851,233,535,-2109
24.156497,364,333,-2111
24.166174,214,278,-1909
24.175820,-224,-220,-2025
24.185496,-197,-622,-2073
24.195496,-63,-520,-2084
24.205142,51,-263,-2157
24.214819,121,-517,-1981
24.224465,66,-802,-1995
24.234141,14,-549,-2100
24.244141,-17,-436,-1993
24.253787,51,-538,-1963
24.263433,73,-556,-1995
24.273110,49,-581,-1959
24.282786,85,-590,-1988
24.292786,128,-561,-2007
24.302432,108,-406,-1998
24.312078,55,-238,-2127
24.321755,66,-408,-2122
24.331401,149,-668,-2004
24.341401,189,-693,-2034
24.351077,85,-492,-2054
24.360723,49,-252,-2034
24.370400,94,-134,-2040
24.380046,57,-4,-2013
24.390046,98,-158,-2016
24.399722,-50,169,-2045
24.409368,139,-115,-1998
24.419045,332,-677,-2070
24.428691,-370,930,-2129
24.438691,810,-3696,-1970
24.448367,1389,-7912,-2159
24.458013,-561,-1265,-2438
24.467690,-261,1249,-2300
24.477336,473,-633,-2168
24.487336,-104,414,-2111
24.497012,-115,539,-2281
24.506658,-31,333,-2220
24.516335,57,580,-1868
24.525981,182,441,-1979
24.535981,5,244,-2109
24.545657,-93,328,-2152
24.555303,64,428,-2270
24.564980,203,389,-2200
24.574626,173,357,-2056
24.584626,37,424,-2022
24.593934,5,462,-2081
24.604007,17,333,-2157
24.613683,17,358,-1993
24.623329,73,362,-1834
24.633006,132,296,-2104
24.643006,164,360,-2197
24.652652,135,344,-2048
24.662328,126,337,-2059
24.671974,183,364,-2002
24.681651,201,266,-1956
24.691651,55,305,-2015
24.701297,192,432,-2115
24.710973,233,-18,-1873
24.720619,-186,708,-2154
24.730296,1542,530,-2327
24.740296,2462,814,-1600
24.749942,-761,5974,-2097
24.759618,-1597,4404,-1936
24.769264,171,-777,-1140
24.778941,167,292,-1697
24.788941,-27,-97,-2413
24.798587,-52,-1165,-2616
24.808263,-159,-399,-2302
24.817909,187,-322,-2150
24.827586,353,-613,-2097
24.837586,166,-475,-2086
24.847232,87,-342,-2175
24.856908,105,-518,-2095
24.866554,32,-475,-2004
24.876231,-27,-395,-2152
24.886231,10,-220,-2159
24.895877,198,-72,-1941
24.905553,246,-313,-1936
24.915199,62,-500,-2086
24.924876,42,-500,-2091
24.934876,139,-456,-1968
24.944522,151,-452,-1950
24.954198,85,-513,-2004
24.963844,126,-467,-2004
24.973521,264,-342,-1936
24.983521,198,-349,-2011
24.993167,112,-411,-2090
25.2813,162,-420,-1990
25.12489,135,-427,-2018
25.22135,141,-379,-2070
25.32135,178,-288,-2027
25.41812,92,-295,-2027
25.51458,8,187,-2034
25.61135,108,-277,-2016
25.70780,-2,-340,-1991
25.80780,155,1144,-2102
25.90457,1530,-4948,-2086
25.100103,1621,-8366,-2023
25.109749,332,-754,-1786
25.119426,28,1380,-1293
25.129426,-147,-13,-1697
25.139102,-75,524,-2059
25.148748,64,87,-1829
25.158394,8,255,-2115
25.168071,374,333,-2093
25.178071,232,241,-1859
25.187717,-20,441,-2141
25.197393,185,330,-2127
25.207039,67,273,-1813
25.216716,-52,487,-2011
25.226716,42,473,-2229
25.236362,-47,253,-1952
25.246038,-25,460,-2013
25.255684,217,457,-2157
25.265361,205,46,-1943
25.275361,60,242,-2011
25.285007,3,482,-2120
25.294683,121,378,-2036
25.304329,303,382,-1975
25.313975,117,380,-2131
25.323975,41,183,-2327
25.333652,255,169,-2157
25.343298,-18,241,-2043
25.352974,399,341,-2220
25.362620,419,430,-1866
25.372620,-647,-258,-2007
25.382297,3446,1198,-2791
25.391943,7115,453,-1379
25.401619,2537,-1338,-1654
25.411265,-2966,6756,-3429
25.421265,-3097,7590,-1527
25.430942,-77,-186,-977
25.440588,612,89,-1973
25.450264,53,-440,-2070
25.459910,205,-1606,-2604
25.469910,-192,-208,-2132
25.479556,-318,-475,-1836
25.489233,166,-818,-2036
25.498879,71,-534,-1861
25.508555,-358,-579,-2195
25.518555,-50,-893,-2248
25.528232,164,-750,-1790
25.537878,-204,-327,-1854
25.547554,-252,-618,-2059
25.557200,-120,-893,-2109
25.567200,-106,-427,-2204
25.576846,167,-233,-2102
25.586918,237,-442,-1941
25.596228,23,-745,-1932
25.605874,58,-765,-1875
25.615551,105,-436,-1857
25.625551,-33,-375,-1966
25.635197,-97,-417,-1961
25.644874,-31,-390,-1966
25.654520,80,-438,-2059
25.664196,182,-472,-2070
25.674196,133,-399,-2065
25.683842,23,-590,-2056
25.693519,-22,-408,-2025
25.703165,289,-245,-2045
25.712811,83,-995,-2052
25.722811,-145,783,-2052
25.732487,1703,-1943,-1986
25.742133,1419,-8292,-2207
25.751810,-408,-3777,-2366
25.761486,462,892,-1581
25.771486,398,-77,-1516
25.781132,-224,651,-2525
25.790778,158,655,-2415
25.800455,37,391,-1772
25.810131,41,424,-2281
25.820131,160,282,-2438
25.829777,-17,521,-1827
25.839423,-24,444,-2029
25.849100,149,173,-2125
25.858746,176,505,-2038
25.868746,83,589,-2141
25.878422,30,191,-1890
25.888068,-2,332,-1836
25.897714,46,439,-1929
25.907391,139,373,-1954
25.917391,157,482,-2075
25.927037,71,378,-1986
25.936713,76,283,-1902
25.946359,194,314,-2045
25.956036,171,353,-2097
25.966036,155,362,-2036
25.975682,187,349,-2059
25.985358,153,405,-2125
25.995004,130,424,-2054
26.4681,176,439,-2000
26.14681,207,417,-2075
26.24327,142,330,-2063
26.34003,123,323,-1979
26.43649,162,353,-2032
26.53326,24,319,-2104
26.63326,44,-308,-1984
26.72972,167,219,-2061
26.82648,-272,224,-2054
26.92294,614,-1484,-1886
26.101940,1162,4601,-2963
26.111940,-649,7513,-2452
26.121617,-517,-259,-118
26.131263,585,-745,-1041
26.140939,182,1385,-1888
26.150585,-122,1058,-450
26.160585,124,1306,-715
26.170262,321,-636,-2545
26.179908,126,-829,-2916
26.189584,191,-381,-2179
26.199230,164,-625,-2211
26.209230,-59,-468,-2104
26.218876,151,-550,-1982
26.228553,174,-370,-2098
26.238199,-8,-475,-2107
26.247875,76,-590,-2104
26.257875,182,-533,-2079
26.267521,133,-525,-2138
26.277198,69,-277,-2166
26.286844,191,-388,-2048
26.296520,291,-606,-2023
26.306520,139,-483,-2161
26.316166,98,-465,-2082
26.325843,171,-454,-1956
26.335489,141,-392,-2009
26.345165,144,-409,-2061
26.355165,139,-399,-2056
26.364811,53,-279,-2025
26.374488,21,-95,-2011
26.384134,48,-22,-2032
26.393810,49,-40,-2041
26.403810,41,-40,-2020
26.413456,39,-42,-2016
26.423133,39,-54,-2045
26.432779,37,-18,-2047
26.442425,37,-20,-2023
26.452425,41,-195,-2038
26.462101,14,296,-2032
26.471747,103,-349,-2066
26.481424,-22,-227,-1986
26.491070,-20,1548,-1952
26.501070,665,-5416,-2266
26.510746,580,-8516,-1663
26.520392,74,-484,-1988
26.530069,319,101,-3591
26.539715,399,-1707,-3089
26.549715,96,417,-2622
26.559391,-31,1492,-1982
26.569037,-13,955,-616
26.578714,-129,148,-1563
26.588360,-168,430,-2315
26.598360,37,389,-1872
26.608036,103,432,-2173
26.617682,39,648,-2229
26.627359,-20,199,-2006
26.637005,-56,87,-2150
26.647005,196,253,-2040
26.656681,167,201,-1788
26.666327,-31,362,-2077
26.675973,155,474,-2291
26.685650,160,346,-2015
26.695650,192,253,-1793
26.705296,364,237,-1940
26.714972,214,258,-2227
26.724618,151,323,-2147
26.734295,276,391,-1991
26.744295,298,351,-2068
26.753941,217,244,-2015
26.763617,353,271,-2004
26.773263,441,314,-1861
26.782940,-274,314,-1947
26.792940,1207,-70,-2563
26.802586,3033,517,-1856
26.812262,837,-658,-1472
26.821908,-575,-1684,-2759
26.831554,-575,6627,-3572
26.841554,-1002,8366,-2798
26.851231,-140,-361,-379
26.860877,573,-2047,985
26.870553,-165,571,-2477
26.880199,-347,1369,-2743
26.890199,166,-940,351
26.899876,-77,-352,-2786
26.909522,-38,978,-3186
26.919198,-140,-2807,-2586
26.928844,108,-2502,-3663
26.938844,758,280,-1557
26.948490,157,-697,-1913
26.958167,-77,-1031,-2791
26.967813,296,-513,-2113
26.977489,214,-583,-2007
26.987489,130,-329,-1898
26.997135,35,-288,-1879
27.6812,98,-513,-2161
27.16458,178,-434,-2145
27.26135,92,-474,-1984
27.36135,185,-734,-2091
27.45780,208,-525,-2204
27.55457,98,-345,-2056
27.65103,180,-454,-1923
27.74780,303,-413,-2088
27.84780,258,-352,-2163
27.94426,124,-304,-1995
27.104102,174,-309,-1945
27.113748,391,-425,-2209
27.123425,187,-297,-2190
27.133425,323,-206,-1907
27.143071,378,-320,-1982
27.152747,-229,-33,-2023
27.162393,2585,-452,-2070
27.172039,5319,-1365,-2077
27.182039,2672,-933,-1865
27.191716,132,-518,-2232
27.201362,-367,-295,-2464
27.211038,-581,223,-2015
27.220684,-517,-70,-1904
27.230684,-409,-47,-2034
27.240361,-313,273,-2073
27.250007,-429,-67,-2152
27.259683,-450,126,-2125
27.269329,-324,541,-1959
27.279329,-179,192,-1997
27.288975,-156,126,-2091
27.298652,-247,391,-2032
27.308298,-331,392,-2068
27.317974,-234,319,-2136
27.327974,-6,158,-2179
27.337620,-36,210,-2191
27.347297,-47,346,-2029
27.356943,67,108,-1981
27.366589,71,-129,-2054
27.376589,80,128,-1984
27.386265,64,292,-2018
27.395911,92,62,-1990
27.405588,153,-4,-1891
27.415234,276,-172,-2031
27.425234,264,-281,-2159
27.434910,-240,-56,-2090
27.444556,724,69,-2140
27.454233,294,55,-1866
27.463879,-618,-302,-2075
27.473879,6920,166,-3018
27.483525,10054,892,-1565
27.493201,2353,-67,-1582
27.502847,-600,-700,-3629
27.512524,205,-318,-2216
27.522524,-417,0,-1791
27.532170,-634,-77,-2782
27.541816,-517,-175,-2054
27.551492,-383,-67,-1913
27.561138,-495,-238,-2091
27.571138,-718,-129,-1875
27.580815,-343,-34,-1859
27.590123,117,87,-2047
27.600196,-268,323,-2250
27.609872,-456,180,-2088
27.619518,-238,162,-1873
27.629518,-515,201,-2032
27.639195,-604,157,-2182
27.648841,-338,121,-2048
27.658517,-292,-25,-1950
27.668163,-372,-156,-2084
27.678163,-397,-79,-2156
27.687840,-486,-74,-2106
27.697486,-142,-129,-2047
27.707162,-158,-74,-2027
27.716808,-984,160,-2129
27.726808,971,135,-1916
27.736485,-2086,-1000,-2539
27.746131,-9573,-872,-2738
27.755777,-5052,232,-1181
27.765453,578,-684,-2261
27.775453,-831,-1481,-3322
27.785130,-120,221,-2591
27.794776,310,1165,-2859
27.804452,55,58,-2225
27.814098,487,123,-1881
27.824098,171,421,-2048
27.833775,141,-77,-2002
27.843421,332,87,-2159
27.853067,207,348,-2022
27.862743,307,78,-2190
27.872743,341,0,-2159
27.882389,114,166,-1929
27.892066,101,83,-2052
27.901742,196,103,-2011
27.911388,187,360,-1959
27.921388,198,430,-1984
27.931065,148,351,-2052
27.940711,107,289,-2125
27.950387,160,283,-2079
27.960033,160,310,-2116
27.970033,105,383,-2140
27.979710,-6,501,-2031
27.989356,-45,541,-1990
27.999032,12,503,-2031
28.8678,-22,514,-2013
28.18678,-34,558,-2036
28.28324,49,491,-2045
28.38001,62,483,-2020
28.47677,49,551,-2022
28.57323,69,332,-2015
28.67323,64,-2,-2052
28.76969,48,-43,-2029
28.86646,42,-2,-1993
28.96292,55,-25,-2048
28.105968,60,-58,-2057
28.115968,32,17,-2036
28.125614,39,-18,-2011
28.135291,67,-209,-2007
28.144937,-34,399,-2147
28.154614,103,-570,-1927
28.164614,23,178,-2023
28.174260,-841,5535,-3257
28.183936,-674,5006,-1925
28.193582,289,57,564
28.203259,187,-2822,-2284
28.213259,-181,-3441,-3245
28.222905,-90,-1445,-843
28.232581,205,-342,-2093
28.242227,328,-495,-2584
28.251873,216,-629,-2489
28.261873,130,-292,-2475
28.271550,32,-238,-1795
28.281196,41,-475,-2018
28.290872,192,-325,-1970
28.300549,174,-363,-2107
28.310549,-9,-445,-2172
28.320195,48,-636,-2123
28.329871,164,-772,-2179
28.339517,-79,-179,-2068
28.349194,144,-891,-2145
28.359194,39,-467,-2065
28.368840,-218,808,-1995
28.378516,1337,-6037,-2129
28.388162,-79,-7360,-2168
28.397808,-2173,198,-2165
28.407808,848,-1520,-1965
28.417485,2051,-3655,-1922
28.427131,571,-570,-1972
28.436807,396,223,-1834
28.446453,148,130,-1952
28.456453,-59,439,-2002
28.466160,110,380,-1850
28.475776,180,266,-2102
28.485452,78,298,-2229
28.495098,-34,105,-1943
28.505098,-13,192,-2104
28.514775,-56,335,-2234
28.524421,142,82,-1893
28.534097,183,201,-1873
28.543743,-67,369,-2206
28.553743,101,303,-2261
28.563420,310,358,-2006
28.573066,223,308,-1973
28.583229,180,367,-2048
28.592448,191,471,-1859
28.602448,162,378,-2052
28.612094,335,241,-2318
28.621740,414,105,-2204
28.631416,280,258,-2209
28.641062,228,371,-2098
28.651062,273,207,-2045
28.660739,316,312,-2045
28.670385,126,424,-1952
28.680062,576,326,-2106
28.689708,69,199,-1965
28.699708,94,33,-2091
28.709384,4533,535,-2359
28.719030,5920,678,-1620
28.728707,2410,867,-1929
28.738353,476,996,-2559
28.748353,-156,271,-2138
28.758029,-474,4719,-2432
28.767675,-486,6756,-1675
28.777352,-118,221,-1597
28.786998,-47,-1474,-2806
28.796998,-136,216,-1818
28.806674,319,-1090,-1582
28.816320,60,-1100,-2343
28.825997,-61,-149,-2061
28.835643,467,-286,-2131
28.845643,310,-338,-2227
28.855319,-108,-204,-1972
28.864965,-209,-527,-1970
28.874642,28,-834,-1852
28.884288,-22,-718,-1843
28.894288,-177,-479,-2168
28.903964,124,-677,-2141
28.913610,62,-556,-2011
28.923287,278,-84,-1954
28.932933,-406,-1104,-1743
28.942933,-249,382,-1990
28.952579,4394,-861,-2395
28.962255,4449,-10653,-1927
28.971901,-395,-8535,-1443
28.981578,-443,1414,-1716
28.991578,-556,378,-2340
29.1254,-1518,-454,-2077
29.10900,-150,1224,-1688
29.20546,-136,-445,-2298
29.30223,-354,-450,-2254
29.40223,48,832,-2148
29.49869,-225,780,-2247
29.59545,-179,828,-2093
29.69191,-49,562,-2272
29.78868,-275,103,-2238
29.88868,-292,76,-2306
29.98514,-243,251,-2159
29.108190,-200,337,-1763
29.117836,-177,398,-1936
29.127482,-154,335,-2190
29.137482,3,157,-2132
29.147159,-1029,1351,-1991
29.156805,-2150,2199,-2031
29.166481,-1616,1178,-2082
29.176127,-963,366,-2043
29.186127,-420,-250,-2045
29.195804,-233,-765,-2084
29.205450,-222,-293,-1973
29.215126,-29,67,-1797
29.224772,-736,-370,-1750
29.234772,-708,-711,-1950
29.244449,-68,-502,-2304
29.254095,-129,48,-1956
29.263771,-250,101,-1534
29.273417,-322,53,-2027
29.283417,242,765,-2275
29.293094,551,960,-1882
29.302740,239,580,-1736
29.312416,241,630,-1997
29.322062,121,517,-1990
29.332062,710,353,-1841
29.341739,830,673,-1957
29.351385,-231,476,-2000
29.361061,51,-167,-1998
29.370707,416,-209,-2057
29.380707,271,-88,-2066
29.390384,466,151,-2047
29.400030,299,305,-2007
29.409706,223,-145,-2013
29.419352,285,-288,-2090
29.429352,174,-108,-2111
29.438998,76,-220,-2057
29.448675,42,-293,-2000
29.458321,33,-340,-2091
29.467997,69,-456,-2143
29.477997,133,-449,-2038
29.487643,142,-384,-2013
29.497320,98,-365,-2048
29.506966,3,-383,-2091
29.516642,-84,-411,-2052
29.526642,-113,-408,-2015
29.536288,-99,-315,-2056
29.545965,-40,-109,-2045
29.555611,19,-9,-2009
29.565257,49,-161,-2004
29.575257,51,-275,-2011
29.584933,71,-349,-2061
29.594579,78,-442,-2045
29.604256,-49,-447,-1925
29.613902,241,-227,-2204
29.623902,732,1,-2302
29.633578,462,-174,-1932
29.643224,69,-259,-1986
29.652870,-165,-327,-2086
29.662547,-327,-677,-2086
29.672547,-827,-545,-2152
29.682193,-847,-1775,-2311
29.691869,1428,-4854,-2127
29.701515,274,-5550,-1865
29.711161,-4382,-3611,-2391
29.721161,-5305,-2082,-2391
29.730838,-5882,-1938,-2161
29.740484,-6403,-1932,-2184
29.750160,-4811,-2029,-2125
29.759806,-4402,-2177,-2311
29.769806,-4391,-1715,-2161
29.779483,-4548,-1438,-2336
29.789129,-4668,-484,-2159
29.798775,-3673,-511,-1461
29.808451,-3622,-1947,-1784
29.818451,-3914,-1815,-2534
29.828097,-3347,-716,-2718
29.837774,-3172,-531,-2173
29.847420,-2923,-1115,-2407
29.857096,-2682,-868,-2791
29.867096,-2709,-465,-2266
29.876742,-2261,-606,-2266
29.886419,-2238,-597,-2298
29.896065,-2322,-640,-1986
29.905741,-1765,-408,-1965
29.915741,-1922,-159,-2093
29.925387,-2316,73,-2073
29.935033,-1647,-67,-1765
29.944710,-1150,-733,-1854
29.954356,-1557,-479,-2227
29.964356,-1540,96,-1957
29.974032,-1254,-272,-2065
29.983678,-1265,-602,-2500
29.993324,-1058,-318,-2184
30.3001,-865,-199,-1968
30.13001,-833,-202,-2020
30.22647,-872,16,-1922
30.32323,-829,33,-2054
30.41969,-656,-181,-2147
30.51646,-731,37,-1948
30.61646,-724,233,-1959
30.71292,-645,196,-1925
30.80968,-572,548,-1670
30.90614,-236,532,-1850
30.100291,-179,244,-2161
30.110291,-204,323,-2332
30.119937,-6,267,-2473
30.129614,-24,192,-2277
30.139260,-75,264,-2047
30.148905,-29,214,-2004
30.158905,-15,74,-2027
30.168582,41,-50,-2054
30.178259,64,-65,-2027
30.187905,41,-20,-2020
30.197551,55,-24,-2029
30.207551,62,-24,-2031
30.217227,41,-20,-2031
30.226873,37,-17,-2032
30.236550,42,-20,-2045
30.246196,37,-27,-2040
30.256196,35,-18,-2031
30.265872,32,-20,-2032
30.275518,37,-27,-2027
30.285195,42,-20,-2029
30.294841,37,-20,-2034
30.304841,41,-18,-2043
30.314517,42,-18,-2050
30.324163,32,-27,-2038
30.333840,39,-22,-2018
30.343486,51,-18,-2013
30.353486,49,-25,-2029
30.363162,42,-31,-2038
30.372808,44,-27,-2038
30.382454,51,-20,-2038
30.392131,55,-20,-2038
30.402131,58,-25,-2029
30.411777,57,-24,-2023
30.421453,49,-22,-2027
30.431099,57,-24,-2038
30.440776,64,-25,-2034
30.450776,30,-22,-2031
30.460422,41,-9,-2040
30.470098,44,-38,-2011
30.479744,-33,-22,-2059
30.489421,189,49,-2013
30.499421,-133,-177,-1990
30.509067,39,146,-2234
30.518743,1965,-306,-1854
30.528389,1158,-2848,-2065
30.538066,-1654,-2820,-2882
30.548066,-2222,-765,-2297
30.557712,-2363,-813,-2136
30.567388,-2495,-1065,-2523
30.577034,-2043,-743,-2172
30.586342,-2152,-743,-2070
30.596446,-1890,-592,-2084
30.606446,-1463,-465,-2248
30.616092,-1631,-250,-2357
30.625768,-908,239,-1982
30.635414,-863,432,-2040
30.645091,-1063,-33,-1961
30.655091,-615,-711,-1507
30.664737,-1404,-484,-1807
30.674413,-991,82,-1972
30.684059,62,283,-1629
30.693705,-345,532,-1991
30.703705,-656,414,-2188
30.713382,-715,453,-1734
30.723028,-734,855,-1779
30.732704,-679,326,-2165
30.742350,-524,-229,-2284
30.752350,-445,16,-2268
30.762027,-540,189,-2106
30.771673,-370,194,-1816
30.781349,-363,133,-1891
30.790995,-515,80,-2143
30.800995,-354,92,-2116
30.810672,-256,248,-2016
30.820318,-274,285,-2022
30.829994,-220,73,-2090
30.839640,-195,121,-2073
30.849640,-158,208,-2006
30.859286,-150,155,-2041
30.868963,-163,194,-2068
30.878609,-138,214,-2036
30.888285,-138,216,-2029
30.898285,-70,126,-2036
30.907931,39,-24,-2022
30.917608,42,-36,-2025
30.927254,30,-15,-2041
30.936930,46,-24,-2036
30.946930,39,-22,-2036
30.956576,26,-22,-2045
30.966253,39,-24,-2032
30.975899,51,-27,-2025
30.985575,37,-27,-2043
30.995575,32,-31,-2041
31.5221,49,-31,-2027
31.14898,41,-33,-2025
31.24544,35,-45,-2032
31.34220,28,16,-2025
31.44220,57,-122,-2023
31.53866,24,7,-2057
31.63543,7,107,-2006
31.73189,155,-600,-2065
31.82865,-265,1273,-2002
31.92865,-984,3360,-1927
31.102511,-1347,3040,-2443
31.112188,-1265,3271,-2148
31.121834,-702,896,-2152
31.131510,-167,-3232,-2704
31.141510,-584,-4534,-1843
31.151156,-1979,-2888,-1684
31.160802,-1366,-320,-2606
31.170479,714,699,-4298
31.180125,733,419,-5832
31.190125,-11,253,-5321
31.199801,-258,-404,-4634
31.209447,-525,-1590,-4723
31.219124,-270,-1486,-4779
31.228770,96,-388,-4820
31.238770,57,32,-4623
31.248447,-15,-275,-4241
31.258093,1,-252,-4079
31.267769,-9,303,-3729
31.277415,-147,585,-2838
31.287415,-352,642,-1931
31.297061,-404,1008,-1311
31.306738,-208,1351,-820
31.316414,-161,1155,-379
31.326060,-488,778,164
31.336060,-713,1215,1048
31.345706,-758,2731,2124
31.355383,-975,4615,3253
31.365029,-983,6202,4888
31.374705,-495,6736,7075
31.384705,17,5556,8820
31.394351,307,3913,8763
31.404028,-125,3483,6797
31.413674,-1083,3790,4187
31.423350,-1397,4001,1567
31.433350,-1183,3783,-1133
31.442996,-863,2938,-3373
31.452673,-320,1796,-4266
31.462319,-70,317,-4082
31.471995,-70,-902,-4173
31.481995,480,-1270,-4936
31.491641,1073,-1615,-5848
31.501287,1428,-1859,-6607
31.510964,1871,-1506,-6957
31.520610,1958,-1215,-6800
31.530610,1865,-1657,-6580
31.540286,1789,-2645,-6677
31.549932,1594,-2916,-6766
31.559609,1519,-1941,-6510
31.569255,1337,-934,-5943
31.579255,1040,-527,-5123
31.589510,762,-183,-4436
31.598606,217,199,-4034
31.608283,-490,610,-3416
31.617929,-1257,1342,-2548
31.627605,-1922,1756,-1454
31.637605,-1909,1419,-302
31.647251,-1550,1423,690
31.656928,-1836,2183,2315
31.666574,-2248,3072,4656
31.676250,-1015,4049,6597
31.686250,932,4619,8045
31.695927,1408,3845,9579
31.705573,983,2135,10314
31.715219,341,799,9307
31.724895,-295,474,7097
31.734895,-758,628,4749
31.744572,-924,1053,2762
31.754218,-1065,1628,917
31.763895,-1725,1733,-613
31.773541,-1599,2064,-1859
31.783541,-722,2442,-2895
31.793217,-361,1849,-3452
31.802863,-265,1278,-3864
31.812509,-247,878,-4459
31.822186,-181,-283,-5336
31.832186,-72,-1547,-6203
31.841832,-149,-2416,-6375
31.851508,-159,-3536,-5859
31.861154,-104,-5041,-5289
31.870831,12,-6344,-5078
31.880831,189,-6696,-5071
31.890507,58,-5884,-5025
31.900153,-97,-4398,-5246
31.909830,-42,-2829,-5775
31.919476,-104,-1681,-5819
31.929476,-250,-990,-5137
31.939122,-556,-470,-4134
31.948798,-974,-58,-2897
31.958475,-1282,416,-1634
31.968121,-1559,840,-379
31.978121,-1936,1067,1074
31.987797,-2165,923,2455
31.997443,-2250,837,3960
32.7120,-1961,2122,6570
32.16766,151,3324,9961
32.26766,1633,2585,12530
32.36442,-27,1023,13812
32.46088,-1638,-641,13682
32.55765,-2732,-1452,11105
32.65411,-4034,-670,7042
32.75411,-4755,187,4199
32.85087,-5843,1831,2655
32.94733,-5982,5708,321
32.104410,-4286,8011,-3098
32.114056,-2697,5586,-5064
32.124056,-2095,1028,-5064
32.133732,-2081,-1463,-6105
32.143378,-2100,-159,-8403
32.153055,-1970,1862,-9757
32.162701,-1649,1489,-10410
32.172701,-1313,-102,-10935
32.182377,-1277,-968,-11287
32.192023,-1091,-727,-11776
32.201669,-608,-88,-10931
32.211346,-472,262,-8616
32.221346,-649,408,-6923
32.231022,-738,585,-5718
32.240668,-768,873,-4466
32.250345,-808,1231,-3670
32.259991,-868,1598,-3198
32.269991,-1013,1851,-2709
32.279667,-1241,1867,-2072
32.289313,-1513,1715,-1220
32.298990,-1820,1305,-149
32.308636,-2090,728,1128
32.318636,-2354,441,2467
32.328312,-2539,719,3588
32.337958,-2539,1589,4451
32.347635,-2281,2867,5370
32.357281,-1275,4192,6779
32.367281,78,4320,8879
32.376957,630,2376,11112
32.386603,44,-92,12003
32.396280,-1072,-1304,10579
32.405926,-1868,-1116,7731
32.415926,-2511,-450,5226
32.425602,-3216,551,3424
32.435248,-3757,2437,1681
32.444925,-4532,4515,-25
32.454571,-5377,6422,-2059
32.464571,-5153,7006,-4446
32.474247,-4230,4292,-5423
32.483893,-3468,-686,-4321
32.493570,-2461,-5934,-3514
32.503216,-3323,-9794,-3573
32.513216,-6696,-10528,-3488
32.522892,-7717,-9169,-4468
32.532569,-6387,-7607,-4804
32.542215,-6239,-6525,-3448
32.551891,-6141,-6805,-3666
32.561891,-5220,-7491,-4823
32.571537,-4180,-6152,-5121
32.581214,-3514,-4168,-4218
32.590860,-3582,-3907,-1898
32.600536,-3411,-3002,-434
32.610536,-2634,-1238,-100
32.620182,-2240,-542,624
32.629859,-1702,476,882
32.639505,-431,1387,557
32.649181,466,1121,569
32.659181,815,1003,710
32.668827,1080,1499,767
32.678504,1119,1937,635
32.688180,1194,1999,-122
32.697826,1499,2024,-1013
32.707826,1658,2433,-1407
32.717503,1885,2999,-1911
32.727149,2399,3312,-2511
32.736825,3092,3583,-2677
32.746471,3404,3787,-2090
32.756471,2772,3338,-734
32.766148,2199,2551,58
32.775794,2033,2040,-258
32.785470,1492,1933,-288
32.795116,778,2239,398
32.805116,96,2581,733
32.814793,-883,2546,414
32.824439,-2159,2128,101
32.834115,-3384,1244,-75
32.843761,-4057,-67,-565
32.853761,-4214,-1166,-872
32.863438,-4368,-1604,-529
32.873084,-4568,-1893,-150
32.882760,-4639,-2513,269
32.892406,-4832,-2798,664
32.902406,-5212,-2914,78
32.912083,-5387,-3439,-1102
32.921729,-5500,-4016,-1877
32.931405,-5337,-4898,-2450
32.941051,-4536,-5568,-2513
32.951051,-3920,-4821,-1741
32.960728,-3896,-3232,-1118
32.970374,-3977,-2052,-1356
32.980051,-3804,-1632,-1906
32.989697,-3650,-1845,-1998
32.999697,-3518,-1990,-1700
33.9373,-3006,-1613,-1263
33.19019,-2622,-1372,-924
33.28696,-2390,-1277,-831
33.38342,-2016,-1081,-752
33.48342,-1745,-1020,-786
33.58018,-750,-990,-795
33.67664,774,-850,-263
33.77341,1801,-534,848
33.87017,3015,116,1942
33.97017,3926,1876,1933
33.106663,3308,3945,1144
33.116340,2231,4349,826
33.125986,1617,3867,578
33.135662,864,3265,32
33.145662,-111,2089,-470
33.155308,-929,883,-1186
33.164985,-1609,66,-2082
33.174631,-2291,-579,-2598
33.184307,-2972,-1470,-2972
33.194307,-3313,-2598,-3527
33.203953,-3339,-3239,-3611
33.213630,-3318,-3043,-2979
33.223276,-3170,-2609,-2013
33.232952,-2906,-2450,-1197
33.242952,-2563,-2325,-936
33.252598,-2202,-2047,-956
33.262275,-1911,-1870,-988
33.271921,-1607,-1822,-1025
33.281597,-1191,-1750,-958
33.291597,-827,-1566,-890
33.301243,-690,-1149,-1052
33.310920,-524,-763,-1441
33.320566,-193,-595,-1718
33.330242,110,-534,-1609
33.340242,410,-527,-1343
33.349888,632,-317,-1066
33.359565,524,1,-700
33.369211,114,26,-436
33.378887,-342,-258,-422
33.388887,-650,-618,-572
33.398533,-731,-743,-1011
33.408210,-713,-733,-1611
33.417856,-806,-724,-1954
33.427532,-847,-815,-2029
33.437532,-868,-1066,-2057
33.447178,-1074,-1177,-2206
33.456855,-1245,-1291,-2322
33.466501,-1170,-1422,-2211
33.476177,-941,-1359,-2004
33.486177,-841,-1256,-1627
33.495823,-850,-1091,-1195
33.505500,-747,-825,-1259
33.515146,-652,-552,-1645
33.524822,-784,-467,-1827
33.534822,-1027,-577,-1841
33.544468,-1166,-609,-1879
33.554145,-1282,-666,-1943
33.563791,-1420,-825,-2018
33.573467,-1399,-843,-2116
33.583467,-1332,-863,-2100
33.592775,-1297,-1049,-2022
33.602848,-1084,-1088,-2059
33.612494,-859,-924,-2100
33.622171,-822,-836,-1938
33.631817,-795,-681,-1668
33.641817,-775,-502,-1684
33.651493,-940,-356,-1532
33.661139,-1054,-433,-1547
33.670816,-858,-1045,-2672
33.680462,-1027,-906,-2659
33.690462,-1186,-511,-1795
33.700138,-706,-845,-2120
33.709784,-652,-647,-2070
33.719461,-756,-359,-1750
33.729107,-547,-475,-1713
33.739107,-504,-511,-1593
33.748783,-442,-488,-1706
33.758429,-334,-599,-1804
33.768106,-386,-952,-1870
33.777752,-467,-952,-2118
33.787752,-384,-581,-2318
33.797428,-274,-499,-2423
33.807074,-204,-525,-2598
33.816751,-154,-490,-2643
33.826397,-234,-517,-2452
33.836397,-352,-558,-2241
33.846073,-325,-675,-2041
33.855719,-252,-704,-1918
33.865396,-317,-459,-1973
33.875042,-381,-159,-2077
33.885042,-349,-38,-2170
33.894718,-342,-31,-2307
33.904364,-327,-31,-2431
33.914041,-263,-52,-2523
33.923687,-213,35,-2602
33.933687,-220,266,-2552
33.943364,-390,378,-2300
33.953010,-549,337,-2111
33.962686,-474,224,-2198
33.972332,-325,92,-2268
33.982332,-183,267,-2150
33.992009,-250,610,-1947
34.1655,-438,789,-1509
34.11331,-268,1132,-1122
34.20977,-140,1506,-1243
34.30977,-297,1473,-1445
34.40654,-292,1207,-1332
34.50300,-188,974,-990
34.59976,-443,1248,-795
34.69622,-806,2001,-840
34.79622,-599,2128,-716
34.89299,-358,1596,-574
34.98945,-463,1171,-458
34.108621,-368,1094,-200
34.118267,-374,1530,-134
34.128267,-447,1926,-122
34.137944,-118,1903,107
34.147590,-15,1790,283
34.157266,-306,1540,403
34.166912,-404,1273,499
34.176912,-440,1280,655
34.186558,-561,1587,1001
34.196235,-527,1505,1453
34.205881,-549,721,1853
34.215557,-540,608,1665
34.225557,-295,1017,1294
34.235203,-133,785,1408
34.244880,60,676,1573
34.254526,137,739,1942
34.264202,-133,491,2264
34.274202,-390,414,2242
34.283848,-424,321,2342
34.293525,-263,49,2201
34.303171,-95,-95,1742
34.312817,28,-233,1392
34.322817,-8,-379,1417
34.332493,-122,-495,1528
34.342139,-174,-802,1331
34.351816,-267,-775,1653
34.361462,-392,-231,2562
34.371462,-461,-675,2863
34.381138,-208,-2075,2087
34.390784,57,-2327,608
34.400461,-234,-1263,-129
34.410107,-465,-647,439
34.420107,-195,-961,840
34.429783,-93,-1457,724
34.439429,-265,-1790,617
34.449075,-400,-1675,337
34.458752,-506,-2215,467
34.468752,-533,-1682,89
34.478398,-806,-329,-663
34.488074,-809,-4441,1115
34.497720,-436,-6716,1737
34.507397,-822,-3239,-347
34.517397,-916,-2859,-549
34.527043,-590,-3020,124
34.536719,-716,-1479,-49
34.546365,-556,-1208,-181
34.556042,-436,-1609,-209
34.566042,-483,-1938,-220
34.575688,-333,-1948,-174
34.585790,-367,-1347,-159
34.595040,-288,-633,-745
34.604716,7,-631,-1724
34.614716,185,-1454,-1713
34.624362,176,-2290,-1441
34.634039,-147,-2306,-1561
34.643685,-359,-2165,-1136
34.653361,-324,-2252,-913
34.663361,-352,-1981,-1356
34.673007,-318,-1681,-1434
34.682653,-249,-1666,-1061
34.692330,-384,-1741,-666
34.701976,-434,-1782,-641
34.711976,-229,-1695,-1356
34.721652,-268,-1579,-2034
34.731298,-517,-1506,-2272
34.740975,-565,-1368,-2466
34.750621,-517,-1168,-2418
34.760621,-504,-1034,-2172
34.770297,-454,-936,-1957
34.779943,-356,-715,-1707
34.789620,-297,-504,-1570
34.799266,-279,-461,-1497
34.809266,-263,-356,-1422
34.818912,-340,-161,-1486
34.828588,-500,-17,-1649
34.838234,-547,178,-1915
34.847911,-474,308,-1934
34.857911,-474,382,-2009
34.867557,-533,573,-2598
34.877233,-288,889,-2404
34.886879,-320,1132,-1399
34.896556,-838,1057,-1141
34.906556,-604,1069,-1452
34.916202,-120,1303,-1534
34.925878,-163,1356,-1432
34.935524,-250,1371,-1136
34.945201,-395,1542,-991
34.955201,-515,1485,-1002
34.964847,-256,1365,-813
34.974523,180,1633,-1063
34.984169,244,1796,-1040
34.993846,-95,1774,-231
35.3846,-124,1960,235
35.13492,108,2169,333
35.23168,-65,2121,421
35.32814,-165,1987,537
35.42491,30,1953,623
35.52491,-2,1887,698
35.62137,-175,1773,848
35.71813,-211,1808,730
35.81459,-245,1744,671
35.91136,-318,1187,1183
35.101136,-38,987,1480
35.110782,253,1603,1301
35.120458,24,2142,1299
35.130104,-279,2356,1510
35.139781,-367,2264,1858
35.149781,-304,1801,2037
35.159427,-152,1351,1710
35.169073,78,746,1364
35.178749,233,164,1235
35.188395,99,201,1373
35.198395,-45,49,1865
35.208072,-67,-345,2040
35.217718,-22,-534,1780
35.227394,178,-613,1412
35.237040,228,-122,1196
35.247040,182,374,1528
35.256717,360,449,1974
35.266363,439,914,1930
35.276039,269,1140,1956
35.285685,121,669,1901
35.295685,44,519,1571
35.305362,-168,-649,2767
35.315008,-72,-1613,3383
35.324654,323,-527,2040
35.334330,226,-122,1915
35.344330,98,-438,2347
35.353976,182,-458,2124
35.363653,24,-668,1885
35.373299,-52,-913,1708
35.382975,107,-958,1687
35.392975,241,-854,1787
35.402621,248,-934,1978
35.412267,39,-1299,1910
35.421944,-161,-1590,1821
35.431590,12,-1597,1903
35.441590,132,-1797,1810
35.451266,-193,-2009,2060
35.460912,-304,-1752,2319
35.470589,-88,-1590,2151
35.480235,16,-1427,2206
35.490235,228,-893,2349
35.499911,464,-784,2347
35.509557,383,-843,1937
35.519234,298,-227,1226
35.528880,285,205,1319
35.538880,87,8,2060
35.548526,-258,-202,2403
35.558202,-531,-242,2185
35.567848,-474,3,1481
35.577525,-156,-84,639
35.587525,217,-525,280
35.597171,360,-488,114
35.606847,21,442,49
35.616493,-438,2274,298
35.626170,-666,3372,173
35.636170,-924,3528,164
35.645816,-879,3222,533
35.655492,-417,2292,-72
35.665138,-313,2151,-354
35.674784,-297,1824,-50
35.684784,-258,708,-1238
35.694461,-377,635,-1154
35.704107,-320,865,1003
35.713783,-243,1190,628
35.723429,-286,1339,-652
35.733429,-192,289,446
35.743106,12,410,-2018
35.752752,-433,1673,-5864
35.762428,-852,1806,-3850
35.772074,-390,782,-2216
35.782074,-479,-111,-2329
35.791751,-968,460,-1474
35.801397,-488,582,-1779
35.811043,-145,123,-2100
35.820719,-263,460,-1897
35.830719,-222,642,-2048
35.840396,-465,651,-2173
35.850042,-609,499,-2427
35.859688,-329,137,-2922
35.869364,-117,24,-2968
35.879364,-90,196,-2273
35.889010,-4,433,-1456
35.898687,-68,442,-1240
35.908333,-277,151,-1550
35.918010,-315,-86,-1854
35.928010,-343,-149,-1940
35.937655,-342,-170,-2054
35.947301,-197,-336,-2122
35.956978,-118,-697,-1982
35.966624,-145,-897,-1904
35.976624,-100,-888,-1845
35.986301,-45,-902,-1654
35.995947,-17,-1011,-1552
36.5623,135,-1161,-1590
36.15269,244,-1302,-1543
36.25269,239,-1507,-1472
36.34946,191,-1738,-1411
36.44592,119,-1807,-1338
36.54268,251,-1922,-1332
36.63914,110,-2252,-983
36.73914,-370,-2436,-593
36.83591,-77,-2938,-622
36.93237,364,-3389,-372
36.102883,-22,-2450,-118
36.112559,-752,-1707,607
36.122559,-781,-2252,1071
36.132205,778,-2045,-361
36.141882,2201,-1079,-315
36.151528,1774,-292,1321
36.161204,578,573,1603
36.171204,160,812,1664
36.180850,478,382,2280
36.190527,673,155,2880
36.200173,864,292,2812
36.209849,946,523,2303
36.219849,928,687,1837
36.229495,1119,739,885
36.239172,1033,426,55
36.248818,721,24,685
36.258464,598,87,1617
36.268464,665,292,1619
36.278140,748,342,1448
36.287786,696,466,1399
36.297463,730,689,1415
36.307109,917,839,1642
36.317109,883,630,1644
36.326785,807,-320,1823
36.336431,1078,-902,2712
36.346108,942,135,2024
36.355754,333,1303,191
36.365754,483,1387,78
36.375430,1039,1215,496
36.385076,892,962,828
36.394753,362,557,1487
36.404399,53,282,1440
36.414399,-9,258,835
36.424045,-99,1762,105
36.433721,-565,3644,-299
36.443367,-1113,3829,-168
36.453044,-816,3676,-43
36.463044,-72,3292,-163
36.472690,7,2137,-806
36.482366,-109,1515,-920
36.492012,-415,2099,-156
36.501689,-938,2556,253
36.511689,-706,1751,137
36.521335,-492,1299,-243
36.531011,-661,1831,-483
36.540657,-699,1990,-534
36.550334,-941,1749,-1109
36.560334,-631,1680,-1804
36.569980,80,1433,-1420
36.579656,-292,824,-1165
36.588964,-1186,555,-1484
36.599037,-1731,917,-1256
36.608683,-1731,1314,-1243
36.618683,-1072,921,-1406
36.628360,-565,257,-1554
36.638006,-524,219,-2243
36.647682,-624,317,-2789
36.657359,-729,130,-2720
36.667359,-733,-175,-2452
36.677005,-674,-424,-2295
36.686681,-616,-620,-2098
36.696327,-547,-831,-1832
36.705973,-543,-941,-1716
36.715973,-693,-911,-1699
36.725650,-702,-834,-1672
36.735296,-531,-883,-1691
36.744972,-424,-1015,-1613
36.754649,-458,-1047,-1404
36.764649,-422,-1127,-1320
36.774295,-227,-1349,-1297
36.783971,-483,-1677,-1113
36.793617,-13,-1838,-1027
36.803263,994,-1615,-1299
36.813263,-268,-1765,-1382
36.822940,-1284,-2095,-1190
36.832616,-327,-2056,-1316
36.842262,33,-2220,-1674
36.851939,124,-2129,-2025
36.861939,273,-1816,-1977
36.871585,110,-2098,-1497
36.881231,230,-2440,-1302
36.890907,542,-2316,-1425
36.900584,710,-1993,-1632
36.910584,594,-1668,-1791
36.920230,364,-1327,-1802
36.929876,212,-1024,-1927
36.939552,180,-813,-2070
36.949198,299,-670,-2059
36.959198,310,-538,-1804
36.968875,194,-927,-1265
36.978521,703,-1554,-1391
36.988197,1721,-672,-1900
36.997874,1933,519,-1565
37.7874,1533,107,-1108
37.17520,1383,-493,-1054
37.27166,1178,-420,-956
37.36843,980,-65,-981
37.46489,1205,317,-1211
37.56489,1623,435,-1125
37.66165,2133,489,-825
37.75811,2540,314,-886
37.85488,2449,101,-850
37.95134,2231,444,-588
37.105134,2005,460,-433
37.114810,1789,30,-254
37.124456,1737,94,-345
37.134133,1421,208,-377
37.143779,1244,158,-75
37.153779,1558,476,51
37.163455,1810,764,57
37.173101,1981,648,253
37.182778,1965,432,553
37.192424,1744,121,803
37.202424,1774,-225,1183
37.212100,1855,-256,1117
37.221746,1856,-125,285
37.231423,1753,-258,-93
37.241069,1340,-524,92
37.251069,1064,-563,149
37.260745,1021,-483,330
37.270391,880,-563,551
37.280068,605,-713,642
37.289714,130,-500,767
37.299714,-375,-506,2247
37.309390,-618,-1522,4801
37.319036,-556,-2175,4145
37.328713,-225,-2065,1228
37.338359,23,-1956,755
37.348359,-143,-1320,1733
37.358035,-449,-495,2156
37.367681,-297,-427,2017
37.377358,-393,-522,1506
37.387004,-402,-1050,1123
37.397004,-113,-2245,1198
37.406650,-2218,-263,1767
37.416326,-2657,1481,1740
37.425972,-165,-654,1208
37.435649,-168,-711,1399
37.445649,-697,85,1853
37.455295,-502,-295,1874
37.464971,-675,137,1569
37.474617,-979,237,1551
37.484294,-1624,458,1455
37.494294,-1973,396,1499
37.503940,-1836,-768,2358
37.513616,-1384,-636,2322
37.523262,-874,176,1773
37.532939,-761,196,1858
37.542939,-1141,167,1712
37.552585,-1507,-8,1781
37.562231,-1422,-131,1978
37.571907,-1270,-313,1767
37.582071,-1400,-670,1590
37.591259,-1325,-961,1498
37.601259,-1129,-1111,1314
37.610936,-1357,-984,983
37.620582,-1582,-404,933
37.630228,-1609,373,1317
37.639904,-2043,499,1210
37.649904,-2806,194,1051
37.659550,-3186,-70,1331
37.669227,-3482,151,1526
37.678873,-2514,-174,1017
37.688549,-268,-1008,-243
37.698549,-320,-379,-288
37.708195,-1475,-236,387
37.717872,-1618,-793,164
37.727518,-1795,-358,44
37.737194,-1500,-418,373
37.747194,-1379,-897,424
37.756840,-2588,-399,233
37.766486,-3279,155,0
37.776163,-2639,-65,-736
37.785809,-2223,-290,-522
37.795809,-2500,-161,-45
37.805485,-2356,5,-1325
37.815131,-1793,182,-940
37.824808,-1815,823,-290
37.834454,-1923,998,-2391
37.844454,-2475,14,-1445
37.854130,-2741,-641,621
37.863776,-1850,-1252,-1093
37.873453,-1374,-2402,-1743
37.883099,-1968,-508,-165
37.893099,-2473,1831,278
37.902775,-1543,-463,-808
37.912421,-629,-1898,-1640
37.922067,-674,-954,-1941
37.931744,-824,-768,-2177
37.941744,-858,-243,-2009
37.951390,-559,141,-2050
37.961066,-286,-331,-2248
37.970712,-354,-788,-1838
37.980389,-436,-941,-1413
37.990389,-368,-1156,-1370
38.035,-556,-709,-1857
38.9711,-1056,-584,-2282
38.19357,-820,-2282,-1850
38.29034,-143,-2525,-1827
38.39034,-81,-1465,-2127
38.48680,-136,-1245,-2141
38.58326,-6,-656,-2197
38.68002,180,-315,-2047
38.77648,537,-442,-2156
38.87648,651,-113,-2197
38.97325,580,-136,-1390
38.106971,1008,-1404,-456
38.116647,1367,-1834,-517
38.126293,1344,-886,-1268
38.136293,1971,-774,-1686
38.145970,2560,-972,-1590
38.155616,1798,-941,-1224
38.165292,1281,-1225,-1259
38.174938,1546,-1365,-1938
38.184938,1053,-943,-2543
38.194615,823,-199,-2614
38.204261,1323,-95,-2082
38.213937,1398,-447,-1550
38.223583,1365,-434,-1475
38.233583,1483,-502,-1324
38.243260,1537,-686,-1031
38.252906,1508,-627,-1006
38.262582,1339,-606,-854
38.272228,1205,-575,-372
38.282228,1412,-409,-383
38.291905,1769,-442,-758
38.301551,1930,-588,-554
38.311227,1937,-584,-224
38.320873,1917,-425,-190
38.330873,1905,-288,87
38.340550,1855,-361,385
38.350196,1856,-313,219
38.359872,1903,-268,260
38.369518,1914,-243,316
38.379518,2005,283,-165
38.389195,1692,344,442
38.398841,1548,66,949
38.408517,1819,-13,392
38.418194,1569,-459,683
38.428194,1446,-302,1187
38.437840,1719,-43,1185
38.447516,1615,-349,1071
38.457162,1135,-292,1358
38.466839,921,-86,1521
38.476839,989,-59,1469
38.486485,917,0,1717
38.496161,821,-138,1492
38.505807,885,-431,1298
38.515484,962,-167,1310
38.525484,1028,44,924
38.535130,1033,-299,976
38.544806,773,-529,1528
38.554452,289,-968,2069
38.564129,-36,-1284,2003
38.574129,-167,-727,1199
38.583805,-502,-359,1065
38.593451,-786,-486,1612
38.603128,-759,-709,1994
38.612774,-690,-1320,2339
38.622774,-661,-1618,2199
38.632450,-602,-1602,1378
38.642096,-658,-1625,919
38.651773,-31,-1852,957
38.661419,53,-2986,412
38.671419,-2236,-2545,576
38.681095,-1807,-1145,1944
38.690772,583,-1670,2046
38.700418,-588,-1191,1340
38.710094,-1540,-527,1267
38.720094,-956,-1241,1369
38.729740,-1140,-365,924
38.739417,-1636,101,712
38.749063,-2229,-1002,1271
38.758739,-2348,-913,1258
38.768739,-2007,-852,1237
38.778385,-1779,-1429,1296
38.788062,-1620,-995,344
38.797708,-1586,-774,310
38.807385,-1684,-1099,1176
38.817385,-1652,-731,815
38.827030,-1399,-738,410
38.836707,-1316,-1297,589
38.846353,-1315,-2068,574
38.856030,-1227,-3052,849
38.866030,-1688,-2682,1214
38.875676,-2731,-1761,905
38.885352,-3593,-1652,401
38.894998,-3259,-1372,346
38.904675,-2168,-1161,223
38.914675,-1900,-1454,-18
38.924351,-2007,-1332,-27
38.933997,-1670,-765,87
38.943674,-1525,-643,337
38.953320,-1799,-620,69
38.963320,-1893,-447,-445
38.972996,-1804,-561,-367
38.982642,-1872,-609,-236
38.992319,-1938,-509,-349
39.1965,-1925,-431,-534
39.11965,-1941,-522,-733
39.21641,-2006,-722,-906
39.31287,-2081,-933,-772
39.40964,-1891,-1395,-111
39.50610,-1540,-1549,-250
39.60610,-1418,-1038,-1449
39.70286,-1416,-622,-1509
39.79932,-1479,-429,-554
39.89609,-1599,-134,-284
39.99255,-1649,133,-581
39.109255,-1797,205,-868
39.118931,-1877,-245,-902
39.128577,-1584,-1099,-595
39.138223,-1520,-1370,-229
39.147900,-1729,-1108,-118
39.157900,-1915,-709,-270
39.167546,-2325,-77,-320
39.177222,-1898,-4,-272
39.186868,-1034,-329,-459
39.196545,-1108,-336,-243
39.206545,-1463,255,-211
39.216191,-2263,1598,-1284
39.225867,-3098,1649,-1131
39.235513,-3247,539,103
39.245190,-3147,564,105
39.255190,-2568,844,-274
39.264836,-1975,903,-458
39.274512,-1763,998,-741
39.284158,-1447,769,-1197
39.293835,-1238,721,-1429
39.303835,-1413,739,-1359
39.313481,-1729,932,-908
39.323157,-1800,1269,91
39.332803,-1482,826,246
39.342480,-1097,846,185
39.352480,-866,2094,-150
39.362126,-806,2556,-1307
39.371802,-931,2194,-1386
39.381448,-1111,2349,-1065
39.391125,-1322,2660,-1029
39.401125,-1454,2690,-477
39.410801,-1327,2608,-70
39.420447,-1388,2703,-67
39.430124,-1356,2471,-100
39.439770,-656,1603,-143
39.449770,16,1080,-190
39.459446,321,1053,-336
39.469092,562,987,-493
39.478769,944,862,-583
39.488415,1333,898,-624
39.498415,1428,1174,-481
39.508091,1324,1501,-261
39.517737,1276,1710,-245
39.527414,1331,1789,-415
39.537090,1356,1799,-604
39.547090,1385,1667,-659
39.556736,1521,1421,-565
39.566382,1660,1399,-549
39.576059,1798,1473,-613
39.585367,1769,1298,-590
39.595440,1544,965,-474
39.605440,1474,680,-413
39.615116,1542,566,-458
39.624762,1601,376,-517
39.634439,1594,0,-575
39.644085,1573,-288,-415
39.654085,1642,-258,132
39.663761,1671,-42,517
39.673407,1755,-31,412
39.683084,2012,-97,367
39.692730,2060,-356,269
39.702730,1933,-725,-229
39.712406,1946,-866,-550
39.722083,1962,-1002,-540
39.731729,1917,-977,-538
39.741405,1860,-911,-543
39.751405,1921,-1150,-258
39.761051,2172,-1440,10
39.770728,2081,-1479,-172
39.780374,1799,-1434,-168
39.790051,1580,-1106,-304
39.800051,1001,-584,-224
39.809697,790,-768,873
39.819373,969,-952,1226
39.829050,1115,-891,862
39.838696,1444,-1241,467
39.848696,1290,-1297,166
39.858342,992,-1093,760
39.868018,1053,-1124,1017
39.877695,894,-956,721
39.887341,628,-716,851
39.897341,553,-786,983
39.907017,508,-884,1030
39.916663,355,-802,1290
39.926340,87,-434,1544
39.935986,19,123,1801
39.945986,-188,564,1985
39.955662,-556,517,1949
39.965308,-270,367,3669
39.974985,-56,389,5081
39.984631,-286,-279,2849
39.994631,-338,-816,1153
40.4307,-202,-361,1656
40.13953,-275,99,1828
40.23630,-666,246,1567
40.33306,-499,396,1681
40.43306,-27,367,2115
40.52952,-352,73,2006
40.62629,-790,94,1696
40.72275,-911,344,1617
40.81951,-1000,223,1453
40.91951,-763,155,1358
40.101597,-756,703,1114
40.111274,-1197,1340,1103
40.120920,-1356,1412,1387
40.130596,-1099,1132,653
40.140596,-681,833,12
40.150242,-795,967,749
40.159919,-799,1080,737
40.169565,-1224,1512,1789
40.179241,-3184,3137,3817
40.189241,-3272,3326,1426
40.198918,-1940,980,298
40.208564,-2145,-1159,2687
40.218240,-2457,-567,1598
40.227886,-1763,794,-147
40.237886,-934,491,1148
40.247563,-1163,344,1619
40.257209,-1884,790,-204
40.266885,-2088,680,157
40.276531,-2004,478,1605
40.286531,-1895,1008,1157
40.296208,-1597,1410,760
40.305884,-1625,1603,541
40.315530,-2002,1983,496
40.325207,-1897,1701,660
40.335207,-1656,1196,349
40.344853,-1665,1049,244
40.354529,-1632,939,389
40.364175,-1643,632,257
40.373852,-1715,167,244
40.383852,-1609,1,446
40.393528,-1563,158,569
40.403174,-1654,174,569
40.412851,-1359,-325,519
40.422497,-1025,-729,433
40.432497,-1131,-352,251
40.442173,-1370,35,67
40.451819,-1674,-45,53
40.461496,-1856,-247,207
40.471142,-1779,-411,267
40.481142,-1690,-738,205
40.490818,-1507,-1116,301
40.500495,-1338,-1024,421
40.510141,-1468,-702,267
40.519817,-1725,-506,101
40.529817,-2175,-274,51
40.539463,-2489,-320,-49
40.549140,-2386,-500,-167
40.558786,-2365,-418,-143
40.568462,-2409,-540,-83
40.578462,-2348,-774,-215
40.588351,-2104,-756,-359
40.597814,-2125,-740,-904
40.607491,-1988,-729,-1068
40.617137,-1091,-252,44
40.627137,-1124,82,192
40.636813,-2018,-54,-966
40.646459,-2598,-72,-2084
40.656136,-2775,-633,-2341
40.665782,-2336,-1070,-1281
40.675782,-1709,-1002,-65
40.685458,-1274,-1065,348
40.695104,-1213,-350,-806
40.704781,-1311,-233,-2007
40.714427,-1113,-743,-1909
40.724427,-1297,-124,-2315
40.734164,-1923,-193,-1674
40.743749,-1725,-468,51
40.753426,-945,660,569
40.763072,-372,232,1146
40.773072,-759,-2084,-2659
40.782748,-2091,-1083,-7430
40.792394,-2098,1058,-4818
40.802071,-1054,324,-1750
40.811717,-736,310,-1106
40.821717,-650,812,-540
40.831393,-654,208,-1334
40.841039,-1325,-529,-2422
40.850716,-1847,-895,-3089
40.860362,-1482,-574,-2766
40.870362,-1088,-220,-1684
40.880038,-984,-33,-1841
40.889715,-943,248,-2123
40.899361,-702,144,-1749
40.909037,-167,-424,-1995
40.919037,24,-765,-2511
40.928683,-43,-693,-2727
40.938360,-20,-786,-2543
40.948006,-115,-1108,-2257
40.957682,-149,-800,-2482
40.967682,-33,-233,-2514
40.977328,308,-118,-1898
40.987005,835,469,-1588
40.996651,1112,241,-2222
41.6327,1140,-924,-2575
41.16327,483,-238,-1599
41.25973,-322,380,-1195
41.35650,24,-356,-1602
41.45296,507,-268,-1634
41.54972,612,441,-2043
41.64972,969,326,-2104
41.74618,1571,-315,-1202
41.84295,1878,-192,-1179
41.93941,1331,128,-1522
41.103617,1146,207,-1497
41.113617,1490,517,-1704
41.123263,1299,726,-1129
41.132940,1387,826,-861
41.142586,1735,1121,-1204
41.152262,1448,1405,-911
41.162262,1144,1449,-836
41.171908,1067,1348,-1070
41.181585,1073,1585,-824
41.191261,985,2180,-152
41.200907,498,1987,-247
41.210907,239,1606,-600
41.220553,214,1914,-415
41.230230,-188,2058,-429
41.239906,-936,2264,-184
41.249552,-1197,2199,149
41.259552,-933,1571,121
41.269229,-933,1589,24
41.278875,-813,1883,-59
41.288551,-616,1780,53
41.298197,-670,1703,167
41.308197,-636,1624,167
41.317874,-684,1656,141
41.327520,-904,1623,248
41.337197,-915,1333,544
41.346843,-1034,1451,662
41.356843,-1281,1683,646
41.366519,-1052,1656,417
41.376165,-1027,1769,23
41.385842,-1186,1656,294
41.395488,-793,1137,901
41.405488,-681,932,844
41.415164,-1015,1099,519
41.424810,-1136,1160,444
41.434487,-1120,914,428
41.444133,-1200,599,357
41.454133,-1361,510,441
41.463809,-1336,478,846
41.473455,-1168,682,1169
41.483132,-1184,1153,1217
41.492778,-1499,1364,1335
41.502778,-1697,1219,1324
41.512454,-1557,1301,867
41.522100,-1645,1678,574
41.531777,-1784,1621,676
41.541423,-1722,1633,608
41.551423,-1948,2090,560
41.561099,-2079,1824,955
41.570745,-1913,1810,1196
41.580422,-2038,2622,1337
41.590068,-1911,1980,1248
41.600068,-1322,351,432
41.609714,-790,-513,378
41.619390,-349,-997,767
41.629036,-83,-592,432
41.638713,-20,787,839
41.648713,-243,946,2201
41.658359,-311,39,3208
41.668005,-179,-358,3462
41.677681,-470,-631,2906
41.687327,-865,-47,1774
41.697327,-999,407,1439
41.707004,-772,-841,2103
41.716650,-293,-1002,2047
41.726326,39,-440,1371
41.735972,283,-990,1139
41.745972,412,-1166,1121
41.755618,405,-856,1055
41.765295,419,-474,1126
41.774941,430,142,1433
41.784617,473,10,1960
41.794617,544,-1011,2364
41.804263,842,-1049,990
41.813940,978,-2720,416
41.823586,505,-5559,2976
41.833262,82,-3695,3037
41.843262,-874,-1325,1403
41.852908,-1491,-1457,1762
41.862585,110,-1268,1171
41.872231,1239,-1640,792
41.881907,267,-2154,1719
41.891907,-363,-1372,1210
41.901553,144,-729,489
41.911230,342,-1188,669
41.920906,124,-1477,583
41.930552,367,-1365,710
41.940552,396,-1434,987
41.950229,89,-1591,823
41.959875,312,-1804,783
41.969551,446,-1936,358
41.979197,698,-2002,-431
41.989197,1207,-2479,78
41.998874,548,-2973,882
42.8520,-350,-2768,632
42.18196,-358,-2273,441
42.27842,-213,-2198,353
42.37842,-65,-2231,-256
42.47519,-75,-2298,-250
42.57165,-354,-2223,-199
42.66841,-277,-911,-1881
42.76487,-88,-1281,-2498
42.86487,-192,-4195,-816
42.96164,-384,-3982,-627
42.105810,-799,-1911,-1902
42.115486,-729,-2170,-1643
42.125132,-258,-2481,-472
42.135132,-595,-2027,-375
42.144809,-699,-1790,907
42.154455,-115,-1161,2528
42.164131,-418,-1095,192
42.173777,-1559,-1665,-2345
42.183777,-1470,-1811,-1586
42.193454,-134,-2340,-784
42.203100,-161,-2714,-1311
42.212776,-986,-2434,-1024
42.222422,-908,-2266,-1091
42.232422,-824,-2145,-1956
42.242099,-979,-2161,-756
42.251745,-636,-1873,-345
42.261421,-222,-1431,-1749
42.271067,-524,-827,-1613
42.281067,-525,448,-567
42.290744,-249,-1490,1376
42.300390,-342,-1375,844
42.310066,405,4744,-1922
42.319712,635,3356,299
42.329712,-402,348,1123
42.339389,-683,3087,-1986
42.349035,-463,1506,-2270
42.358711,-306,-290,-2081
42.368357,-68,790,-2340
42.378357,-347,917,-1806
42.388003,-688,976,-1684
42.397680,-615,1012,-1749
42.407326,-531,687,-1768
42.417002,-575,619,-1873
42.427002,-745,624,-1881
42.436648,-840,371,-1918
42.446325,-902,249,-1841
42.455971,-895,328,-1863
42.465647,-699,-290,-1863
42.475647,-770,-1232,-1632
42.485293,-849,-1083,-1895
42.494970,-761,114,-2304
42.504616,-956,815,-2138
42.514292,-768,305,-1981
42.524292,-493,117,-2190
42.533938,-524,78,-2111
42.543615,-175,-265,-1959
42.553261,-15,-250,-1977
42.562937,-70,-193,-1806
42.572937,-77,5,-1729
42.582614,-415,258,-1898
42.591922,-868,317,-2136
42.601995,-786,262,-2209
42.611641,-413,99,-1982
42.621318,-445,-72,-1688
42.631318,-533,23,-1556
42.640964,-147,-131,-1502
42.650640,-195,-290,-1675
42.660317,-592,698,-2207
42.669963,271,921,-2807
42.679963,535,307,-2856
42.689639,-149,332,-2286
42.699285,8,41,-1984
42.708962,105,-102,-2070
42.718608,5,21,-2041
42.728608,33,-40,-2006
42.738284,10,-24,-2077
42.747930,24,-29,-2072
42.757607,66,-25,-2007
42.767283,51,-22,-1986
42.777283,99,-74,-2032
42.786929,262,-113,-2084
42.796606,189,-200,-2052
42.806252,-138,-61,-2023
42.815928,-209,207,-2023
42.825928,-17,85,-2034
42.835574,48,-56,-2040
42.845251,30,-15,-2013
42.854897,35,-17,-2034
42.864573,32,-24,-2052
42.874573,39,-31,-2007
42.884250,37,-24,-2007
42.893896,42,-11,-2047
42.903572,39,-22,-2063
42.913218,30,-29,-2045
42.923218,42,-27,-2015
42.932895,41,-25,-2029
42.942541,46,-24,-2036
42.952217,44,-20,-2011
42.961894,26,-17,-2023
42.971894,30,-20,-2034
42.981540,42,-15,-2013
42.991216,39,-17,-2013
43.862,35,-22,-2025
43.10539,41,-18,-2032
43.20539,35,-15,-2041
43.30185,35,-20,-2045
43.39861,44,-29,-2040
43.49507,48,-29,-2041
43.59184,49,-34,-2031
43.69184,48,-36,-2032
43.78830,41,-27,-2048
43.88506,49,-33,-2032
43.98183,44,-38,-2009
43.107829,21,-29,-2023
43.117829,32,-25,-2047
43.127505,51,-20,-2023
43.137151,32,-18,-2004
43.146828,24,-17,-2027
43.156504,37,-22,-2043
43.166504,30,-27,-2041
43.176150,32,-17,-2036
43.185827,32,-24,-2034
43.195473,28,-27,-2040
43.205149,35,-15,-2032
43.215149,35,-20,-2023
43.224795,33,-24,-2029
43.234472,44,-17,-2040
43.244148,39,-22,-2032
43.253794,33,-27,-2022
43.263794,41,-20,-2018
43.273471,32,-22,-2020
43.283117,33,-29,-2031
43.292793,39,-31,-2040
43.302439,32,-24,-2040
43.312439,35,-25,-2032
43.322116,39,-33,-2036
43.331792,49,-25,-2034
43.341438,55,-20,-2023
43.351115,44,-25,-2027
43.361115,41,-24,-2027
43.370761,44,-22,-2025
43.380437,32,-20,-2034
43.390114,19,-24,-2027
43.399760,26,-27,-2032
43.409760,46,-25,-2052
43.419437,49,-29,-2038
43.429083,35,-34,-2020
43.438759,30,-25,-2029
43.448405,39,-20,-2027
43.458405,39,-29,-2020
43.468082,32,-20,-2032
43.477728,32,-15,-2023
43.487404,42,-18,-2009
43.497050,48,-9,-2038
43.507050,42,-15,-2052
43.516727,44,-29,-2027
43.526373,42,-22,-2027
43.536049,39,-27,-2038
43.545726,42,-33,-2040
43.555726,48,-20,-2040
43.565372,49,-24,-2034
43.575048,49,-29,-2040
43.584632,41,-25,-2054
43.594400,33,-27,-2045
43.604046,42,-18,-2029
43.614046,41,-22,-2038
43.623722,30,-27,-2032
43.633368,35,-25,-2022
43.643045,44,-20,-2041
43.652691,37,-22,-2047
43.662691,41,-27,-2027
43.672367,42,-25,-2031
43.682013,33,-24,-2040
43.691690,32,-33,-2036
43.701336,32,-24,-2038
43.711336,30,-17,-2038
43.721012,33,-25,-2038
43.730689,37,-24,-2043
43.740335,35,-18,-2041
43.749981,42,-24,-2032
43.759981,46,-22,-2025
43.769657,39,-24,-2022
43.779334,42,-22,-2040
43.788980,46,-18,-2047
43.798656,37,-25,-2031
43.808656,32,-22,-2029
43.818302,39,-20,-2038
43.827979,44,-20,-2032
43.837625,41,-25,-2036
43.847301,39,-29,-2036
43.857301,39,-17,-2020
43.866947,39,-24,-2027
43.876624,42,-25,-2041
43.886270,42,-11,-2027
43.895947,32,-22,-2015
43.905947,32,-34,-2032
43.915593,39,-24,-2048
43.925269,33,-22,-2040
43.934915,39,-18,-2038
43.944592,44,-18,-2036
43.954592,41,-31,-2023
43.964238,42,-20,-2029
43.973914,46,-24,-2027
43.983591,51,-38,-2023
43.993237,46,-20,-2041
44.3237,44,-22,-2034
44.12883,41,-34,-2034
44.22559,53,-17,-2045
44.32205,-2,-40,-2006
44.41882,67,-20,-2048
44.51882,107,19,-2032
44.61528,-190,-143,-1947
44.71174,649,314,-2338
44.80850,1706,989,-2438
44.90496,917,612,-2097
44.100496,158,496,-2463
44.110173,799,-2,-2629
44.119819,1117,-765,-2275
44.129495,932,301,-2090
44.139141,1585,1583,-2270
44.149141,1815,2597,-3434
44.158818,1769,2626,-3996
44.168464,2490,2003,-3889
44.178140,2663,2494,-4138
44.187786,1564,2647,-3479
44.197786,157,2414,-2668
44.207463,-340,2517,-2509
44.217109,-327,2365,-2366
44.226785,-377,1385,-1920
44.236431,80,-2,-1561
44.246431,1167,-816,-1854
44.256108,1949,-1143,-1634
44.265754,1696,-872,26
44.275430,289,655,1474
44.285076,-1316,1746,1455
44.295076,-1099,594,216
44.304753,-90,-434,-1884
44.314399,-558,101,-3341
44.324075,-1229,266,-2718
44.333721,-1268,-75,-922
44.343721,-1541,-543,133
44.353367,-1465,-1191,1235
44.363044,-1013,-1509,2049
44.372690,-1527,-2063,-243
44.382366,-1381,-2843,-1133
44.392366,-1422,-424,162
44.402012,-2768,3351,-1218
44.411689,-1461,2221,-1033
44.421335,-540,973,757
44.431011,-1479,1844,632
44.441011,-1315,1506,896
44.450657,-1232,2035,701
44.460334,-786,3097,-288
44.469980,-204,3419,-259
44.479656,-81,2958,653
44.489656,424,1585,2289
44.499302,801,905,3035
44.508948,610,1883,2460
44.518625,464,3126,1964
44.528271,428,3826,1889
44.538271,378,4524,2180
44.547947,539,5340,2567
44.557593,896,5918,3287
44.567270,1240,6631,3745
44.576916,1028,7586,3153
44.586916,353,7788,3310
44.596592,239,7427,4149
44.606238,749,7527,4131
44.615915,1187,7949,4290
44.625561,1589,8015,4858
44.635561,2008,7527,5261
44.645237,1899,7292,5747
44.654914,1553,7268,5922
44.664560,1348,6406,5788
44.674236,1169,6008,6020
44.684236,1164,6279,5927
44.693882,1381,5374,4447
44.703559,2081,4356,1662
44.713205,2149,3228,-822
44.722881,1046,1885,-1538
44.732881,158,1465,-1257
44.742527,-329,535,-588
44.752204,-452,-383,12
44.761850,-356,-308,12
44.771526,-370,-277,-42
44.781526,-363,-324,-20
44.791172,-372,-283,-58
44.800849,-375,-281,-86
44.810495,-368,-261,-102
44.820171,-388,-250,-97
44.830171,-386,-259,-97
44.839817,-390,-247,-100
44.849494,-400,-243,-109
44.859140,-402,-249,-104
44.868816,-406,-224,-97
44.878816,-402,-213,-125
44.888462,-393,-225,-127
44.898139,-392,-215,-111
44.907785,-392,-195,-125
44.917461,-395,-200,-136
44.927461,-400,-200,-133
44.937107,-399,-186,-138
44.946784,-395,-177,-149
44.956460,-397,-172,-149
44.966106,-402,-168,-143
44.976106,-399,-175,-147
44.985783,-400,-170,-159
44.995429,-417,-158,-161
45.5105,-418,-158,-167
45.14751,-408,-154,-170
45.24751,-411,-143,-161
45.34428,-429,-156,-172
45.44074,-433,-150,-172
45.53750,-427,-129,-174
45.63396,-433,-127,-181
45.73396,-440,-120,-175
45.83073,-442,-111,-165
45.92719,-450,-118,-167
45.102395,-454,-109,-193
45.112041,-447,-92,-190
45.122041,-449,-95,-167
45.131718,-454,-104,-168
45.141364,-456,-99,-170
45.151041,-456,-86,-170
45.160687,-461,-70,-174
45.170687,-472,-63,-161
45.180363,-475,-74,-159
45.190040,-479,-79,-161
45.199686,-483,-65,-154
45.209362,-474,-58,-154
45.219362,-474,-63,-149
45.229008,-486,-59,-145
45.238685,-483,-47,-152
45.248361,-477,-45,-145
45.258007,-488,-42,-136
45.268007,-484,-33,-134
45.277684,-484,-42,-124
45.287330,-502,-42,-118
45.297006,-506,-29,-111
45.306652,-497,-27,-93
45.316652,-504,-27,-86
45.326329,-509,-24,-75
45.336005,-506,-27,-72
45.345651,-499,-29,-75
45.355328,-499,-24,-68
45.365328,-511,-27,-61
45.374974,-506,-38,-40
45.384650,-500,-34,-24
45.394327,-511,-27,-25
45.403973,-513,-42,-17
45.413973,-509,-45,-6
45.423649,-513,-31,-4
45.433295,-513,-45,3
45.442972,-506,-52,8
45.452648,-504,-34,-4
45.462648,-509,-40,-2
45.472294,-506,-47,14
45.481971,-497,-38,10
45.491617,-499,-36,17
45.501293,-504,-36,30
45.511293,-502,-43,23
45.520970,-497,-50,24
45.530616,-484,-33,30
45.540292,-481,-33,42
45.549938,-509,-20,39
45.559938,-483,-61,30
45.569615,-499,55,55
45.579291,-529,39,12
45.588599,-281,-397,158
45.598672,-850,748,-8
45.608349,-202,-834,-222
45.618349,-49,-211,705
45.627995,-3909,8945,-2661
45.637671,-2600,7627,-1154
45.647317,705,349,11452
45.656994,-283,1860,10727
45.666994,457,5224,-1279
45.676670,-561,3799,-3073
45.686316,-2931,-4263,4117
45.695993,-1045,-4430,5354
45.705639,924,1514,1294
45.715639,26,469,2035
45.725315,-113,-258,2083
45.734961,685,464,1405
45.744638,867,169,2480
45.754284,805,832,3128
45.764284,914,1428,3403
45.773960,1076,1651,3288
45.783637,915,1764,3094
45.793283,1015,1844,2897
45.802959,1499,1989,2765
45.812959,1915,2049,2774
45.822605,2331,1651,2844
45.832282,2617,1519,3153
45.841958,2763,1981,3692
45.851604,3240,1462,3865
45.861604,3597,910,3547
45.871281,3240,1296,2924
45.880927,3049,917,1933
45.890603,3028,82,1490
45.900249,2471,16,1624
45.910249,2667,521,1599
45.919926,3469,392,1983
45.929603,3517,-1106,2588
45.939249,3388,-2547,2671
45.948925,3221,-2948,2167
45.958925,2728,-2570,2124
45.968571,2303,-1663,2846
45.978248,2115,-1745,2913
45.987924,2192,-2748,2519
45.997570,2253,-2413,2563
46.7570,1799,-1250,2376
46.17247,1553,-320,1462
46.26893,1962,799,867
46.36569,2474,1981,487
46.46215,3342,2738,-517
46.56215,4469,1974,-740
46.65892,4772,557,73
46.75538,3765,519,467
46.85214,2605,765,935
46.94860,1598,371,1776
46.104860,651,499,1744
46.114537,562,723,712
46.124213,128,569,-8
46.133859,-502,853,-263
46.143536,-58,1028,-356
46.153536,524,1105,-652
46.163182,601,832,-727
46.172828,183,292,1162
46.182504,-222,124,2463
46.192181,-586,-1936,1828
46.202181,-1059,-2350,1881
46.211827,-706,53,2133
46.221503,-142,-215,1635
46.231149,-313,-786,585
46.240826,-136,62,-520
46.250826,624,898,-922
46.260472,665,1735,-550
46.270148,-22,1835,-458
46.279794,344,1646,-2579
46.289471,1578,1648,-3871
46.299471,1587,2231,-1086
46.309117,903,2833,1148
46.318793,857,2417,514
46.328439,1149,1897,-399
46.338116,1387,1299,-434
46.348116,1294,541,10
46.357762,1082,380,-213
46.367438,1240,792,-902
46.377084,1149,798,-1311
46.386761,480,-238,-1020
46.396761,408,-124,-281
46.406407,819,1326,-708
46.416053,748,1540,-1948
46.425729,649,849,-2818
46.435375,698,687,-3982
46.445375,673,305,-4404
46.455052,416,116,-3961
46.464728,-215,557,-3873
46.474374,142,-1341,-808
46.484051,-1590,807,-3914
46.494051,-5170,5538,-13208
46.503697,-2566,42,-7243
46.513373,1210,-4163,2121
46.523019,207,-470,683
46.532696,44,32,699
46.542696,5,214,1182
46.552342,-2602,4329,-58
46.562018,-2664,2972,-3013
46.571695,-822,-4411,-7894
46.580943,-650,-3779,-5911
46.590943,-190,724,-1661
46.601047,83,-13,-1727
46.610693,-27,-392,-2232
46.620369,94,280,-2425
46.630015,60,-4,-2182
46.640015,67,-167,-1754
46.649692,26,-56,-1936
46.659368,-20,8,-2106
46.669014,41,-75,-1973
46.678691,96,-100,-2075
46.688691,69,3,-2241
46.698337,30,67,-2177
46.708013,30,-15,-1870
46.717659,26,-58,-1647
46.727336,26,24,-2038
46.737336,41,49,-2391
46.746982,44,-29,-2195
46.756658,30,-67,-1861
46.766304,14,-38,-1857
46.775981,32,-27,-2109
46.785981,66,-42,-2056
46.795657,83,-40,-1972
46.805303,71,-22,-2173
46.814980,37,-11,-2188
46.824626,3,-27,-1891
46.834626,1,-42,-1779
46.844302,30,-6,-2075
46.853948,49,28,-2300
46.863625,58,5,-2104
46.873271,60,-43,-1861
46.883271,57,-43,-1923
46.892947,49,-9,-2063
46.902624,37,-25,-2047
46.912270,39,-61,-2034
46.921946,35,-36,-2136
46.931946,14,0,-2115
46.941592,10,-27,-1923
46.951269,21,-45,-1890
46.960915,41,-9,-2081
46.970591,62,12,-2197
46.980591,58,-13,-2075
46.990237,41,-36,-1891
46.999914,28,-22,-1929
47.9560,32,-15,-2072
47.19236,42,-38,-2068
47.29236,44,-52,-2041
47.38882,39,-33,-2086
47.48559,32,-17,-2072
47.58205,21,-38,-1950
47.67881,23,-40,-1931
47.77881,37,-6,-2082
47.87527,51,-4,-2156
47.97173,58,-31,-2043
47.106850,49,-27,-1934
47.116496,32,-20,-2000
47.126496,23,-22,-2086
47.136172,26,-22,-2072
47.145818,37,-36,-2043
47.155495,16,-36,-2054
47.165141,30,-24,-2050
47.175141,107,-38,-1952
47.184817,89,-38,-1968
47.194463,41,-13,-2104
47.204140,51,-9,-2095
47.213786,35,-22,-2002
47.223786,21,-27,-1961
47.233462,37,-17,-2016
47.243108,37,-9,-2075
47.252785,39,-15,-2061
47.262431,42,-24,-2052
47.272431,32,-29,-2040
47.282107,44,-20,-2018
47.291753,53,-29,-2002
47.301430,32,-47,-2027
47.311076,42,-25,-2075
47.321076,49,-18,-2056
47.330752,26,-38,-2004
47.340398,26,-25,-1997
47.350075,35,-9,-2047
47.359721,35,-13,-2075
47.369721,42,-17,-2040
47.379397,46,-24,-2032
47.389043,48,-24,-2031
47.398720,42,-29,-2016
47.408366,46,-33,-2020
47.418366,53,-22,-2032
47.428042,48,-22,-2070
47.437719,42,-25,-2068
47.447365,32,-24,-2007
47.457041,30,-20,-2004
47.467041,39,-17,-2040
47.476687,30,-24,-2052
47.486364,42,-20,-2043
47.496010,57,-17,-2025
47.505687,41,-24,-2027
47.515687,30,-29,-2025
47.525333,32,-34,-2031
47.535009,42,-25,-2050
47.544655,44,-13,-2047
47.554332,32,-24,-2043
47.564332,32,-38,-2020
47.574008,37,-25,-2013
47.583654,39,-15,-2052
47.593331,46,-15,-2052
47.602977,44,-20,-2020
47.612977,41,-22,-2000
47.622653,48,-13,-2013
47.632299,39,-15,-2034
47.641976,28,-24,-2032
47.651622,33,-24,-2034
47.661622,39,-29,-2036
47.671298,33,-29,-2025
47.680944,42,-29,-2027
47.690621,53,-36,-2052
47.700267,39,-25,-2059
47.710267,35,-18,-2032
47.719943,41,-31,-2009
47.729589,32,-29,-2011
47.739266,33,-22,-2045
47.748912,33,-29,-2032
47.758912,28,-31,-2016
47.768588,35,-22,-2040
47.778234,46,-24,-2041
47.787911,39,-33,-2020
47.797557,32,-31,-2007
47.807557,44,-22,-2036
47.817233,55,-22,-2048
47.826879,46,-24,-2023
47.836556,33,-25,-2029
47.846202,28,-25,-2032
47.856202,35,-15,-2034
47.865878,41,-15,-2041
47.875555,35,-22,-2048
47.885201,37,-22,-2048
47.894877,46,-17,-2036
47.904877,48,-18,-2018
47.914523,48,-22,-2004
47.924200,30,-24,-2040
47.933846,26,-24,-2057
47.943522,39,-22,-2027
47.953522,35,-29,-2025
47.963168,30,-33,-2036
47.972845,48,-15,-2040
47.982491,46,-15,-2036
47.992167,30,-31,-2027
48.2167,42,-25,-2022
48.11813,55,-22,-2013
48.21490,44,-22,-2023
48.31166,39,-18,-2032
48.40812,41,-24,-2029
48.50812,28,-31,-2031
48.60458,30,-31,-2029
48.70135,39,-24,-2036
48.79811,35,-22,-2045
48.89457,44,-15,-2036
48.99457,42,-18,-2025
48.109134,39,-29,-2023
48.118780,80,44,-2020
48.128456,42,26,-2025
48.138102,-36,-74,-2040
48.148102,7,0,-2038
48.157779,74,57,-2031
48.167425,42,62,-2038
48.177101,17,17,-2038
48.186747,69,-175,-2023
48.196747,64,-149,-2034
48.206424,55,23,-2048
48.216070,64,16,-2034
48.225746,21,-31,-2027
48.235392,23,-22,-2029
48.245392,39,-31,-2036
48.255069,30,-45,-2045
48.264745,32,-49,-2038
48.274391,32,-34,-2027
48.284068,35,0,-2029
48.294068,39,-36,-2029
48.303714,42,-88,-2034
48.313390,35,-93,-2043
48.323036,41,-40,-2040
48.332713,49,10,-2043
48.342713,12,-22,-2031
48.352359,7,-13,-2020
48.362035,44,30,-2047
48.371681,42,-2,-2047
48.381358,57,-15,-2036
48.391358,67,1,-2034
48.401004,44,-8,-2034
48.410680,48,-18,-2025
48.420326,57,-20,-2022
48.430003,49,-24,-2040
48.440003,37,-31,-2031
48.449649,32,-11,-2023
48.459325,42,-34,-2040
48.468971,35,-38,-2040
48.478648,32,149,-2041
48.488648,51,103,-2045
48.498294,35,-213,-2045
48.507970,21,-161,-2054
48.517616,41,14,-2043
48.527293,32,-24,-2029
48.537293,23,-31,-2032
48.546969,44,-17,-2027
48.556615,44,-11,-2027
48.566292,10,-45,-2041
48.575938,51,-68,-2041
48.585938,87,21,-2036
48.595246,37,16,-2034
48.605350,41,-52,-2031
48.614996,42,-29,-2040
48.624672,19,-22,-2034
48.634318,41,-31,-2022
48.644318,49,-24,-2023
48.653995,30,-29,-2029
48.663641,30,-27,-2041
48.673317,39,-29,-2032
48.682994,39,-33,-2018
48.692994,49,-17,-2031
48.702640,42,-20,-2038
48.712316,26,-31,-2023
48.721962,26,-22,-2025
48.731639,32,-22,-2041
48.741639,28,-27,-2047
48.751315,28,-22,-2040
48.760961,33,-22,-2031
48.770638,24,-29,-2038
48.780284,32,-22,-2038
48.790284,46,-20,-2040
48.799960,35,-29,-2057
48.809637,39,-29,-2036
48.819283,53,-24,-2027
48.828959,42,-24,-2036
48.838959,35,-22,-2023
48.848605,48,-25,-2036
48.858282,41,-25,-2041
48.867958,32,-20,-2040
48.877604,37,-29,-2036
48.887604,35,-34,-2031
48.897281,39,-25,-2036
48.906927,42,-18,-2040
48.916603,48,-15,-2043
48.926249,48,-18,-2027
48.936249,37,-18,-2027
48.945926,37,-15,-2048
48.955602,37,-25,-2040
48.965248,26,-25,-2027
48.974925,30,-13,-2034
48.984925,33,-25,-2036
48.994601,32,-31,-2031
49.4247,44,-13,-2032
49.13924,37,-22,-2036
49.23570,32,-33,-2025
49.33570,44,-24,-2025
49.43246,35,-25,-2057
49.52892,35,-24,-2056
49.62569,42,-18,-2038
49.72245,37,-22,-2038
49.82245,41,-22,-2036
49.91891,42,-24,-2036
49.101568,41,-18,-2023
49.111244,44,-15,-2022
49.120890,39,-18,-2036
49.130890,28,-20,-2020
49.140567,35,-24,-2018
49.150213,35,-22,-2041
49.159889,35,-15,-2043
49.169535,33,-20,-2041
49.179535,30,-25,-2031
49.189212,41,-20,-2015
49.198888,41,-24,-2025
49.208534,28,-25,-2040
49.218211,41,-20,-2052
49.228211,48,-24,-2045
49.237857,35,-25,-2022
49.247533,32,-25,-2020
49.257179,39,-27,-2023
49.266856,44,-25,-2038
49.276856,46,-24,-2056
49.286502,39,-25,-2043
49.296178,39,-24,-2023
49.305855,42,-24,-2034
49.315501,41,-24,-2045
49.325501,41,-18,-2036
49.335177,32,-13,-2043
49.344854,24,-31,-2038
49.354500,35,-24,-2032
49.364176,44,-9,-2020
49.374176,33,-18,-2015
49.383822,32,-20,-2041
49.393499,39,-20,-2022
49.403176,35,-22,-2004
49.412822,35,-24,-2027
49.422822,44,-24,-2034
49.432498,41,-22,-2036
49.442144,39,-27,-2041
49.451821,44,-20,-2048
49.461467,42,-18,-2052
49.471467,37,-20,-2023
49.481143,41,-18,-2006
49.490820,51,-20,-2023
49.500466,51,-17,-2036
49.510142,41,-18,-2031
49.520142,42,-17,-2015
49.529788,48,-13,-2009
49.539465,39,-25,-2023
49.549111,28,-31,-2031
49.558787,26,-22,-2034
49.568787,26,-24,-2043
49.578433,32,-24,-2041
49.588473,41,-20,-2032
49.597845,46,-17,-2029
49.607491,41,-18,-2034
49.617167,35,-17,-2038
49.627167,46,-29,-2040
49.636813,24,-8,-2048
49.646490,-20,67,-2032
