;Title, http://www.gcdataconcepts.com, x16-1d, ADXL345
;Version, 1877, Build date, Jan  8 2020,  SN:CCDC4016ECDDBE3
;Start_time, 2022-11-15, 18:24:25.411
;Uptime, 4,sec,  Vbat, 1218, mv, EOL, 1100, mv
;SampleRate, 50,Hz
;Deadband, 0, counts
;DeadbandTimeout, 0.000,sec
;Time, Ax, Ay, Az
0.327138,39,-15,-2016
0.347138,41,-20,-2015
0.366641,41,-40,-2031
0.386175,39,-47,-2027
0.405678,32,-29,-2016
0.425212,30,-11,-2023
0.444715,37,-22,-2029
0.464248,39,-34,-2031
0.483782,33,-25,-2034
0.503285,32,-22,-2032
0.523285,33,-38,-2029
0.542819,41,-42,-2025
0.562322,42,-36,-2022
0.581856,37,-33,-2023
0.601390,28,-25,-2031
0.620893,26,-25,-2034
0.640426,30,-33,-2032
0.659960,35,-36,-2023
0.679463,39,-31,-2013
0.699463,37,-31,-2022
0.718997,33,-24,-2040
0.738531,35,-25,-2036
0.758034,42,-40,-2023
0.777568,35,-29,-2027
0.797071,26,-18,-2029
0.816604,46,-43,-2023
0.836138,51,-43,-2040
0.855641,42,-22,-2038
0.875641,37,-24,-2023
0.895175,28,-15,-2031
0.914678,26,0,-2045
0.934212,37,-6,-2041
0.953746,37,1,-2034
0.973249,30,28,-2041
0.992782,30,33,-2052
1.12316,33,49,-2059
1.31819,37,82,-2048
1.51819,33,114,-2061
1.71353,37,160,-2082
1.90856,42,217,-2068
1.110390,41,294,-2025
1.129924,44,376,-1948
1.149457,41,424,-1913
1.168960,30,469,-1972
1.188494,41,492,-2018
1.208028,32,539,-2023
1.228028,49,610,-2022
1.247561,67,623,-1936
1.267065,-22,812,-1797
1.286598,-13,998,-1715
1.306132,39,992,-1715
1.325666,1,1092,-1700
1.345169,26,1190,-1641
1.364703,3,1210,-1672
1.384236,42,1367,-1629
1.404236,105,1135,-1973
1.423739,-77,1110,-1890
1.443273,173,1728,280
1.462807,533,1230,1667
1.482310,160,1008,1239
1.501844,-93,1817,1010
1.521377,-9,2051,382
1.540911,-31,2189,-27
1.560414,-17,2110,353
1.580414,-2,1978,366
1.599948,0,2076,162
1.619482,-2,2006,273
1.639015,-2,1992,310
1.658519,10,2012,273
1.678052,-6,1999,312
1.697586,-4,2008,291
1.717089,7,1996,278
1.736623,0,2006,301
1.756623,1,2008,307
1.776156,0,1989,292
1.795660,-8,2003,285
1.815193,-6,2008,298
1.834727,-2,1997,296
1.854230,0,2003,289
1.873764,0,2006,298
1.893298,-2,2008,298
1.912831,0,2012,296
1.932831,0,2003,299
1.952334,0,2005,299
1.971868,1,2012,299
1.991402,0,2003,299
2.10905,-2,2005,299
2.30439,-4,2008,298
2.49972,-2,2003,294
2.69476,0,2008,292
2.89009,-2,2012,292
2.109009,0,2003,294
2.128543,-2,2005,298
2.148077,1,2010,294
2.167580,3,2003,291
2.187113,1,2001,298
2.206617,0,2006,303
2.226150,-6,2003,301
2.245684,-2,2006,305
2.265218,1,2012,305
2.285218,0,2006,301
2.304721,0,2006,303
2.324255,-2,2006,303
2.343788,-2,2005,301
2.363322,1,2008,298
2.382856,1,2008,296
2.402359,-2,2003,299
2.421893,-2,2005,299
2.441426,0,2005,299
2.461426,-2,2003,298
2.480929,-2,2003,298
2.500463,0,2006,303
2.519997,-2,2008,296
2.539530,0,2008,291
2.559034,1,2006,294
2.579389,0,2006,296
2.598160,-2,2008,298
2.617693,0,2005,301
2.637196,-2,2005,301
2.657196,-2,2010,296
2.676730,0,2005,301
2.696264,0,2003,308
2.715798,-2,2001,296
2.735331,0,2003,289
2.754834,0,2008,296
2.774368,-4,1994,298
2.793902,-2,1990,292
2.813435,-2,2006,292
2.833435,1,2010,298
2.852939,3,2010,299
2.872472,-2,2008,301
2.892006,0,2005,303
2.911540,1,2001,298
2.931043,-4,2001,291
2.950577,-4,2006,298
2.970110,0,2008,301
2.989644,1,2006,294
3.9644,0,2010,294
3.29178,-2,2008,303
3.48681,-2,2003,301
3.68215,-2,2006,292
3.87748,0,2008,287
3.107282,-4,2005,287
3.126785,-6,2005,296
3.146319,-4,2005,308
3.165852,-2,2008,301
3.185852,1,2014,298
3.205386,0,2012,305
3.224920,-2,2008,301
3.244423,0,2006,301
3.263957,-2,2010,298
3.283490,-2,2012,294
3.303024,1,2006,301
3.322558,1,2003,301
3.342061,-2,2006,296
3.362061,-2,2010,305
3.381595,3,2008,301
3.401128,1,2008,287
3.420632,-2,2010,289
3.440165,-2,2001,298
3.459699,0,2001,296
3.479202,0,2005,292
3.498736,-2,2003,294
3.518269,0,2001,298
3.538269,1,2003,298
3.557803,1,2001,299
3.577337,0,2001,294
3.596840,3,2005,291
3.616374,1,2012,299
3.635877,-2,2008,296
3.655411,-2,2006,291
3.674944,1,2010,294
3.694478,0,2003,303
3.714478,-2,2005,305
3.733981,0,2012,298
3.753515,-4,2005,296
3.773049,-4,2003,298
3.792552,1,2008,298
3.812085,0,2005,296
3.831619,-2,2001,303
3.851153,-2,2010,305
3.870656,1,2010,298
3.890656,3,2001,299
3.910190,-13,2008,289
3.929723,-13,2015,278
3.949257,1,2012,298
3.968760,1,2010,305
3.988294,0,2005,291
4.7828,0,2003,291
4.27331,-2,2008,298
4.46864,0,2006,294
4.66864,-2,2003,291
4.86398,0,2008,296
4.105932,-2,2005,298
4.125466,0,2001,287
4.144969,-2,2010,291
4.164502,0,2014,299
4.184036,0,2012,296
4.203539,-4,2006,296
4.223073,-4,1994,303
4.243073,-2,2003,298
4.262607,1,2015,289
4.282140,3,2005,299
4.301674,0,2005,305
4.321177,1,2012,298
4.340711,0,2006,296
4.360245,-2,2005,289
4.379748,1,2010,291
4.399281,0,2005,301
4.419281,-2,2005,298
4.438815,0,2005,296
4.458349,-2,1999,296
4.477852,1,2005,296
4.497386,0,2010,296
4.516919,-2,2012,294
4.536423,1,2015,303
4.555956,0,2008,305
4.575121,-2,2006,298
4.595052,0,2008,298
4.615052,-2,2010,299
4.634585,0,2008,296
4.654119,0,2003,294
4.673622,-2,2003,289
4.693156,-4,2005,291
4.712690,-2,2005,303
4.732193,0,2003,294
4.751727,0,2005,292
4.771260,1,2005,301
4.791260,0,1992,294
4.810794,-4,1994,294
4.830297,-2,2006,298
4.849831,0,2006,291
4.869364,-2,2005,292
4.888868,0,2006,298
4.908401,-2,2001,298
4.927935,-6,2005,298
4.947438,-2,2010,298
4.967438,0,1996,301
4.986972,1,2003,301
5.6506,1,2015,298
5.26039,-2,2005,294
5.45542,-4,2003,289
5.65076,-2,2010,294
5.84610,0,2006,298
5.104144,0,2006,294
5.123647,-2,2008,292
5.143647,0,2005,294
5.163180,1,2006,299
5.182714,-2,2008,301
5.202248,-4,2006,299
5.221781,0,2010,296
5.241285,0,2010,292
5.260818,-2,2006,289
5.280352,0,2008,294
5.299886,0,2010,299
5.319886,-2,2010,296
5.339389,0,2008,301
5.358923,1,2006,299
5.378456,0,2008,298
5.397990,-2,2006,299
5.417493,0,2005,296
5.437027,-2,2003,292
5.456560,-2,2008,296
5.476064,1,2008,299
5.496064,1,2001,298
5.515597,-2,2005,294
5.535131,-2,2010,301
5.554665,-2,2012,292
5.574168,1,2014,283
5.593702,0,1996,316
5.613235,-2,1990,317
5.632738,0,2008,285
5.652272,-2,2006,289
5.672272,-2,1997,303
5.691806,0,2001,298
5.711309,-2,2006,292
5.730843,0,2010,289
5.750376,1,2006,298
5.769880,0,2003,305
5.789413,1,2001,294
5.808947,3,1999,303
5.828450,0,1999,307
5.848450,-2,1999,299
5.867984,0,2001,314
5.887518,1,2006,303
5.907021,-9,2001,301
5.926554,3,1997,324
5.946058,19,2031,292
5.965591,0,2044,283
5.985125,-8,2014,310
6.4628,5,2026,341
6.24628,3,2028,430
6.44162,-4,1983,489
6.63665,3,1953,516
6.83199,12,1899,615
6.102732,10,1871,665
6.122236,14,1914,671
6.141769,24,1874,767
6.161303,44,1798,869
6.180806,48,1726,962
6.200806,57,1653,1042
6.220340,64,1676,1062
6.239873,53,1655,1108
6.259377,57,1603,1153
6.278910,55,1548,1231
6.298414,62,1394,1381
6.317947,76,1390,1389
6.337481,55,1415,1371
6.356984,37,1196,1549
6.376984,73,1115,1606
6.396518,89,1167,1560
6.416051,51,1040,1658
6.435555,55,1010,1667
6.455088,66,969,1685
6.474592,71,723,1837
6.494125,76,715,1824
6.513628,55,771,1785
6.533162,62,544,1892
6.553162,99,437,1914
6.572665,116,494,1862
6.591861,108,399,1901
6.611791,107,312,1922
6.631294,124,273,1910
6.650828,124,183,1933
6.670331,117,132,1940
6.689865,133,98,1947
6.709399,124,116,1942
6.728902,119,82,1930
6.748902,144,-58,1955
6.768435,144,-95,1953
6.787939,151,-90,1933
6.807472,148,-106,1951
6.827006,149,-111,1940
6.846509,201,-108,1896
6.866043,149,-79,1946
6.885546,3,-79,2055
6.905080,35,-67,2022
6.925080,217,-22,1874
6.944613,239,-8,1856
6.964117,57,-2,1994
6.983650,-15,24,2058
7.3154,124,57,1949
7.22687,242,82,1830
7.42221,214,107,1855
7.61724,51,142,1999
7.81258,-27,158,2058
7.101258,141,144,1921
7.120761,273,144,1821
7.140295,166,176,1906
7.159798,1,226,2015
7.179331,17,253,1994
7.198865,198,235,1862
7.218368,266,253,1814
7.237902,94,291,1939
7.257405,-31,292,2026
7.277405,117,278,1921
7.296939,267,241,1817
7.316473,153,223,1912
7.335976,-4,235,2021
7.355509,58,201,1971
7.375013,219,153,1860
7.394546,201,139,1876
7.414080,37,144,2003
7.433583,35,142,2003
7.453583,173,124,1892
7.473117,221,103,1858
7.492651,105,73,1953
7.512154,23,32,2017
7.531687,162,-4,1917
7.551191,203,-9,1894
7.570724,51,5,1996
7.590258,62,1,1994
7.609761,189,-6,1910
7.629761,176,-9,1906
7.649295,78,-31,1980
7.668798,53,-33,1997
7.688332,130,-15,1933
7.707865,189,-15,1894
7.727369,119,-6,1955
7.746902,41,7,2008
7.766436,121,1,1944
7.785939,187,-4,1894
7.805939,89,0,1974
7.825473,64,35,1996
7.845007,183,89,1883
7.864510,187,98,1871
7.884043,53,80,1987
7.903577,49,114,1989
7.923111,174,137,1890
7.942614,180,128,1894
7.962148,57,160,1981
7.982148,55,166,1972
8.1681,185,137,1881
8.21215,146,182,1910
8.40718,42,232,1976
8.60252,149,232,1906
8.79786,199,246,1874
8.99289,60,260,1969
8.118822,71,271,1962
8.138356,187,271,1871
8.158356,124,248,1905
8.177890,57,232,1962
8.197393,153,196,1905
8.216927,166,178,1901
8.236460,64,196,1974
8.255994,99,160,1947
8.275497,166,132,1899
8.295031,101,151,1949
8.314565,71,162,1978
8.334565,133,146,1917
8.354068,149,133,1901
8.373602,89,151,1958
8.393135,74,160,1956
8.412669,133,139,1905
8.432172,128,142,1921
8.451706,69,166,1971
8.471239,116,153,1939
8.490743,158,157,1912
8.510743,92,198,1958
8.530276,107,198,1935
8.549810,151,194,1892
8.569313,99,232,1935
8.588509,105,253,1930
8.608439,135,249,1894
8.627942,94,241,1928
8.647476,107,237,1935
8.667010,148,221,1903
8.686543,108,212,1926
8.706543,107,201,1940
8.726047,137,176,1921
8.745580,101,174,1935
8.765114,99,169,1937
8.784648,123,153,1924
8.804151,101,167,1944
8.823685,112,171,1946
8.843218,133,157,1930
8.862752,105,167,1939
8.882752,107,183,1939
8.902255,135,191,1928
8.921789,114,208,1935
8.941322,117,214,1924
8.960856,126,216,1912
8.980359,107,235,1931
8.999893,123,241,1917
9.19427,128,230,1908
9.38930,119,223,1931
9.58930,124,205,1926
9.78464,110,196,1919
9.97997,107,192,1922
9.117531,119,176,1926
9.137034,117,174,1942
9.156568,117,173,1937
9.176102,114,166,1922
9.195605,101,167,1931
9.215138,108,169,1939
9.235138,123,173,1933
9.254672,117,187,1930
9.274175,126,201,1921
9.293709,128,210,1919
9.313212,117,212,1935
9.332746,123,210,1928
9.352279,123,216,1917
9.371783,124,224,1921
9.391316,124,221,1922
9.411316,112,216,1919
9.430850,123,214,1919
9.450384,132,207,1928
9.469887,114,199,1933
9.489421,103,199,1935
9.508924,124,192,1917
9.528457,128,192,1919
9.547991,117,199,1935
9.567494,139,210,1919
9.587494,124,214,1921
9.607028,101,194,1933
9.626531,148,232,1889
9.646065,157,239,1878
9.665599,108,164,1939
9.685102,51,148,1983
9.704635,23,182,1983
9.724169,57,210,1944
9.743672,89,187,1942
9.763672,155,255,1887
9.783206,176,362,1824
9.802740,69,235,1933
9.822243,57,146,1969
9.841777,108,196,1919
9.861310,103,183,1926
9.880813,74,185,1926
9.900347,19,183,1974
9.919850,39,144,1974
9.939850,80,141,1924
9.959384,130,149,1947
9.978887,191,139,1951
9.998421,-79,167,1969
10.17955,-374,233,2005
10.37458,-265,164,1964
10.56991,-195,39,1946
10.76525,-283,37,1940
10.96059,-320,32,1942
10.116059,-415,1,1946
10.135562,-547,24,1914
10.155096,-677,3,1889
10.174599,-720,-70,1876
10.194133,-786,-75,1846
10.213666,-1015,12,1512
10.233169,-1299,28,1308
10.252703,-1390,-86,1308
10.272237,-1250,-133,799
10.292237,-2191,-234,1365
10.311740,-2991,-490,1919
10.331274,-1947,-411,874
10.350807,-1434,-4,790
10.370310,-2043,139,751
10.389844,-2106,-13,160
10.409378,-1804,-174,598
10.428881,-2218,-247,640
10.448415,-2472,-236,74
10.468415,-1990,-247,442
10.487948,-1873,-370,789
10.507452,-1957,-368,598
10.526985,-1934,-184,751
10.546519,-2034,7,687
10.566022,-2041,7,539
10.585218,-1888,-161,644
10.605118,-1836,-40,621
10.624651,-1906,205,640
10.644154,-1952,158,598
10.664154,-1973,5,432
10.683688,-1986,-54,371
10.703191,-1984,-68,319
10.722725,-2002,-83,244
10.742259,-2027,-88,251
10.761762,-2023,-77,258
10.781296,-2020,-50,151
10.800799,-2040,-47,87
10.820332,-2034,-72,187
10.840332,-2031,-65,230
10.859836,-2041,-17,199
10.879369,-2038,-11,203
10.898873,-2041,-52,83
10.918406,-2052,-63,-8
10.937909,-2045,-47,49
10.957443,-2041,-22,17
10.976946,-2045,-9,-22
10.996480,-2041,-22,7
11.16480,-2047,-42,-4
11.36014,-2050,-43,8
11.55517,-2050,-40,37
11.75050,-2054,-36,33
11.94584,-2056,-36,21
11.114087,-2050,-38,1
11.133621,-2048,-47,-4
11.153124,-2048,-50,5
11.172658,-2043,-40,-8
11.192658,-2048,-38,-20
11.212192,-2050,-43,-9
11.231695,-2048,-50,5
11.251228,-2054,-59,8
11.270732,-2050,-58,12
11.290265,-2043,-56,12
11.309799,-2048,-45,5
11.329302,-2054,-49,23
11.348836,-2045,-50,24
11.368836,-2041,-33,-9
11.388339,-2048,-42,-8
11.407873,-2045,-50,5
11.427406,-2045,-45,3
11.446910,-2054,-45,7
11.466443,-2050,-49,8
11.485946,-2045,-49,8
11.505480,-2047,-43,3
11.525014,-2047,-50,0
11.545014,-2048,-52,0
11.564517,-2048,-38,5
11.584051,-2050,-42,10
11.603584,-2050,-45,1
11.623088,-2047,-36,5
11.642621,-2048,-45,12
11.662124,-2052,-50,17
11.681658,-2052,-47,23
11.701192,-2050,-50,10
11.721192,-2052,-42,7
11.740695,-2052,-43,8
11.760229,-2050,-47,8
11.779732,-2047,-36,19
11.799266,-2045,-43,23
11.818799,-2047,-47,7
11.838302,-2052,-43,5
11.857836,-2054,-56,14
11.877370,-2047,-54,5
11.897370,-2045,-34,3
11.916873,-2048,-38,12
11.936407,-2047,-45,16
11.955910,-2045,-42,12
11.975444,-2047,-40,3
11.994977,-2050,-45,1
12.14480,-2050,-43,8
12.34014,-2047,-36,7
12.53517,-2043,-38,3
12.73517,-2048,-45,0
12.93051,-2048,-50,-2
12.112585,-2047,-45,3
12.132088,-2047,-50,7
12.151622,-2047,-40,10
12.171125,-2045,-22,7
12.190658,-2040,-54,17
12.210192,-2041,-59,21
12.229695,-2054,-36,-4
12.249695,-2054,-52,-2
12.269229,-2045,-58,10
12.288732,-2045,-49,14
12.308266,-2050,-54,16
12.327769,-2047,-50,17
12.347303,-2047,-49,17
12.366836,-2050,-54,17
12.386340,-2045,-50,19
12.405873,-2048,-49,14
12.425873,-2048,-50,19
12.445407,-2043,-47,21
12.464910,-2045,-45,17
12.484444,-2041,-47,21
12.503977,-2043,-50,12
12.523481,-2052,-50,7
12.543014,-2052,-54,10
12.562548,-2050,-47,12
12.582082,-2047,-40,23
12.602082,-2047,-49,24
12.621585,-2050,-50,16
12.641119,-2054,-49,16
12.660652,-2052,-49,21
12.680155,-2048,-49,19
12.699689,-2050,-50,14
12.719223,-2050,-49,14
12.738757,-2048,-49,14
12.758260,-2050,-50,16
12.778260,-2050,-47,16
12.797793,-2047,-42,16
12.817327,-2043,-49,16
12.836830,-2047,-50,12
12.856364,-2052,-50,19
12.875867,-2047,-49,14
12.895401,-2047,-47,12
12.914935,-2050,-52,19
12.934438,-2047,-50,10
12.954438,-2048,-49,16
12.973971,-2054,-52,23
12.993505,-2041,-43,10
13.13008,-2040,-36,3
13.32542,-2045,-42,16
13.52076,-2047,-50,19
13.71579,-2048,-50,16
13.91112,-2047,-42,23
13.110616,-2052,-34,19
13.130616,-2052,-38,12
13.150149,-2043,-49,14
13.169683,-2045,-47,16
13.189186,-2050,-47,12
13.208720,-2048,-54,7
13.228254,-2045,-45,10
13.247757,-2045,-42,17
13.267290,-2045,-50,17
13.286824,-2045,-38,17
13.306824,-2045,-29,14
13.326327,-2045,-40,10
13.345861,-2050,-47,12
13.365364,-2052,-45,14
13.384898,-2048,-38,19
13.404401,-2050,-45,17
13.423935,-2050,-56,16
13.443468,-2050,-34,23
13.462972,-2056,-33,21
13.482972,-2048,-47,14
13.502505,-2045,-45,17
13.522039,-2050,-38,24
13.541573,-2054,-36,28
13.561076,-2050,-43,24
13.582011,-2048,-40,16
13.600171,-2048,-36,12
13.619705,-2047,-36,28
13.639208,-2050,-43,33
13.658742,-2056,-52,23
13.678742,-2050,-40,17
13.698276,-2048,-38,12
13.717779,-2052,-40,14
13.737312,-2050,-36,21
13.756846,-2047,-42,17
13.776380,-2050,-42,16
13.795883,-2050,-40,23
13.815417,-2045,-47,16
13.834920,-2052,-52,1
13.854920,-2057,-42,14
13.874454,-2048,-27,30
13.893957,-2048,-29,26
13.913490,-2054,-43,21
13.933024,-2047,-43,16
13.952527,-2047,-25,-11
13.972061,-2047,-27,-8
13.991564,-2031,-36,49
14.11098,-2034,-24,89
14.31098,-2050,8,105
14.50632,-2045,1,137
14.70135,-2041,-74,141
14.89668,-2059,-99,101
14.109202,-2054,-84,126
14.128705,-2047,-106,167
14.148239,-2118,-70,192
14.167773,-2197,49,212
14.187276,-2190,87,194
14.207276,-2141,42,237
14.226810,-2159,101,264
14.246313,-2227,171,299
14.265846,-2209,139,428
14.285380,-2111,205,524
14.304883,-2036,357,735
14.324417,-2061,410,901
14.343920,-2011,380,921
14.363454,-1782,448,992
14.383454,-1609,665,1078
14.402957,-1456,708,1317
14.422491,-1256,674,1517
14.442024,-1072,898,1556
14.461528,-859,1010,1733
14.481061,-624,978,1614
14.500595,-290,1167,1173
14.520098,-13,1128,1308
14.539632,101,798,1839
14.559632,351,733,2031
14.579165,564,646,1949
14.598669,498,503,1737
14.618202,564,682,1306
14.637706,965,855,939
14.657239,1239,751,858
14.676773,1421,339,623
14.696276,1792,55,205
14.715810,1808,146,169
14.735810,1764,362,133
14.755313,2096,619,-302
14.774847,2172,480,-597
14.794380,2115,124,-615
14.813883,2051,14,-615
14.833417,1689,-63,-741
14.852920,1523,-97,-1113
14.872454,1503,-100,-1345
14.891957,1231,-175,-1406
14.911957,1030,32,-1711
14.931491,912,307,-1895
14.950994,789,223,-1890
14.970528,549,107,-1309
14.990031,382,-70,-1724
15.9565,441,-572,-3422
15.29068,221,-534,-2764
15.48602,37,-88,-1791
15.68105,266,-358,-2297
15.88105,-86,-363,-2079
15.107608,-736,-122,-1906
15.127142,-567,-329,-2090
15.146675,-456,-265,-1922
15.166178,-475,-175,-1868
15.185712,-93,-263,-1997
15.205215,-68,-224,-1954
15.224749,-467,-83,-1888
15.244252,-856,30,-1897
15.264252,-1118,57,-1877
15.283786,-1104,98,-1806
15.303320,-916,162,-1774
15.322823,-829,169,-1804
15.342356,-865,192,-1754
15.361860,-840,228,-1784
15.381393,-872,124,-1695
15.400927,-1108,207,-1570
15.420430,-1072,396,-2004
15.440430,-784,319,-2020
15.459964,-897,391,-1525
15.479467,-1186,512,-1490
15.499001,-1241,510,-1477
15.518534,-1281,591,-1379
15.538038,-1425,640,-1295
15.557571,-1566,617,-1106
15.577041,-1659,674,-1084
15.596667,-1690,717,-1047
15.616170,-1681,324,-636
15.636170,-1741,244,-404
15.655704,-1895,715,-427
15.675237,-1954,498,-117
15.694740,-1872,123,124
15.714274,-1859,198,117
15.733777,-1907,-167,99
15.753311,-2145,-399,151
15.772814,-2391,-36,587
15.792348,-2034,-233,1265
15.812348,-1522,-743,1574
15.831882,-1541,-802,1426
15.851385,-1840,-749,1435
15.870918,-1772,-299,1430
15.890422,-1347,330,1246
15.909955,-1004,67,1483
15.929489,-843,-222,1781
15.948992,-747,116,1801
15.968526,-790,267,1869
15.988526,-963,449,1897
16.8029,-925,651,1851
16.27563,-1002,460,2083
16.47096,-1222,449,2451
16.66600,-1172,458,2444
16.86133,-911,7,1787
16.105636,-163,-177,1253
16.125170,610,-20,1544
16.144704,844,233,1660
16.164704,957,662,1381
16.184207,915,541,1573
16.203741,817,294,1758
16.223244,923,596,1412
16.242778,826,367,1576
16.262281,682,173,1803
16.281814,814,551,1528
16.301348,758,212,1819
16.320851,628,-72,2137
16.340851,758,308,1997
16.360385,990,217,1830
16.379919,958,153,1706
16.399422,726,940,1692
16.418956,921,1142,1564
16.438459,1128,399,1483
16.457992,1153,287,1494
16.477526,1105,514,1244
16.497029,744,596,1578
16.517029,971,987,1792
16.536563,1537,844,894
16.556097,1583,464,689
16.575600,1724,719,1199
16.595133,1756,919,1631
16.614667,1412,782,1785
16.634170,1549,289,1248
16.653704,1815,235,1010
16.673207,1698,601,1182
16.693207,1623,539,1132
16.712741,1556,533,1030
16.732244,1542,530,814
16.751778,1701,424,633
16.771311,1735,433,648
16.790845,1696,644,519
16.810348,1794,773,342
16.829882,1883,476,241
16.849416,1917,317,-47
16.869416,1951,380,-500
16.888919,2094,301,-918
16.908453,2194,283,-922
16.927956,2024,371,-599
16.947489,1678,428,-474
16.967023,1385,344,-631
16.986526,1630,46,-1111
17.6060,2065,-111,-1315
17.25594,1969,19,-1004
17.45594,1576,198,-1181
17.65097,1205,246,-1574
17.84631,1123,83,-1627
17.104134,1435,-61,-1752
17.123667,1514,-33,-1732
17.143201,1114,39,-1550
17.162704,858,92,-1734
17.182238,910,82,-1898
17.201772,792,76,-1752
17.221772,605,76,-1898
17.241275,596,14,-2122
17.260809,599,-33,-1977
17.280342,739,-75,-1925
17.299845,655,-54,-1932
17.319379,348,-43,-1877
17.338913,412,-122,-2052
17.358446,341,-86,-2070
17.377950,274,-38,-1916
17.397950,351,-40,-1891
17.417483,44,64,-1979
17.437017,-49,130,-2097
17.456520,-11,69,-2056
17.476054,-34,-20,-2052
17.495557,139,21,-2084
17.515091,-63,96,-2047
17.534624,-186,37,-2091
17.554128,24,3,-2068
17.574128,-106,5,-2025
17.593323,-275,-36,-2072
17.613223,-272,-75,-2104
17.632757,-302,-122,-2172
17.652260,-368,-95,-2104
17.671794,-536,7,-1806
17.691327,-716,58,-1695
17.710831,-854,16,-1800
17.730364,-1052,-75,-1807
17.749898,-1183,-143,-1750
17.769898,-1191,-217,-1686
17.789401,-1336,-197,-1518
17.808935,-1563,-77,-1377
17.828438,-1600,-70,-1443
17.847972,-1652,-218,-1386
17.867505,-1718,-297,-1143
17.887008,-1581,-177,-1036
17.906542,-1625,-68,-1034
17.926076,-1859,-218,-1070
17.946076,-1779,-495,-666
17.965579,-1768,-370,-142
17.985113,-2070,-138,-299
18.4616,-2165,-272,-652
18.24150,-2138,-309,-659
18.43683,-2098,-175,-324
18.63186,-1873,-247,96
18.82720,-1900,-433,282
18.102254,-2207,-350,153
18.122254,-2184,-186,-38
18.141757,-1925,-245,82
18.161291,-1691,-295,437
18.180794,-1709,-283,680
18.200328,-2011,-267,824
18.219861,-2057,-190,985
18.239364,-1877,-109,919
18.258898,-1809,-113,685
18.278432,-1729,-217,780
18.298432,-1659,-211,1119
18.317935,-1845,-115,1233
18.337469,-1923,-84,1221
18.357002,-1625,-8,1339
18.376506,-1415,-65,1496
18.396039,-1381,-197,1637
18.415542,-1486,-102,1705
18.435076,-1459,-88,1433
18.454610,-997,-213,1135
18.474610,-833,-192,1412
18.494113,-1004,-227,1614
18.513647,-945,-304,1556
18.533150,-936,-174,1871
18.552684,-922,-163,1896
18.572217,-772,-252,1565
18.591720,-634,-224,1624
18.611254,-586,-242,1749
18.630757,-902,-43,1962
18.650757,-1056,64,2155
18.670291,-666,-227,1896
18.689825,-536,-306,1765
18.709328,-570,-213,1858
18.728862,-418,-218,1896
18.748365,-534,-192,1921
18.767898,-595,-252,2117
18.787432,-629,-359,2447
18.806935,-781,-183,2289
18.826935,-327,-13,1733
18.846469,46,37,1433
18.865972,21,76,1574
18.885506,366,-327,2140
18.905040,583,-602,2326
18.924543,707,-343,1874
18.944076,869,-120,1637
18.963580,814,85,1481
18.983113,1133,73,1419
19.3113,1260,-61,1617
19.22647,974,-47,1633
19.42150,1085,-68,1514
19.61684,1512,5,1369
19.81217,1655,69,1308
19.100721,1399,17,1331
19.120254,1473,89,1030
19.139788,1855,139,692
19.159291,1912,44,765
19.179291,1823,7,935
19.198825,1842,24,792
19.218359,1749,103,328
19.237862,1928,103,60
19.257395,2287,-24,205
19.276929,2140,64,116
19.296463,1930,173,-215
19.315966,1996,80,-231
19.335500,2165,7,-283
19.355500,2242,8,-504
19.375033,1953,96,-525
19.394537,1685,173,-611
19.414070,1972,78,-940
19.433604,2153,-49,-834
19.453138,1837,7,-565
19.472641,1692,87,-904
19.492175,1764,28,-1256
19.511708,1805,-20,-1266
19.531708,1639,19,-1161
19.551211,1435,57,-1275
19.570745,1542,10,-1445
19.589910,1703,-63,-1415
19.609841,1603,-131,-1595
19.629374,1353,-174,-1590
19.648908,1365,-142,-1220
19.668411,1399,-72,-1295
19.687945,1074,-4,-1595
19.707478,932,-4,-1607
19.727478,964,10,-1716
19.746982,833,74,-1865
19.766515,799,107,-1886
19.786049,690,128,-1911
19.805583,605,23,-1904
19.825086,876,-84,-2057
19.844620,771,57,-2002
19.864153,424,135,-1725
19.883687,551,-2,-1970
19.903687,573,12,-2148
19.923190,514,76,-1931
19.942724,571,39,-1909
19.962258,489,94,-1981
19.981791,417,130,-2107
20.1294,314,114,-2240
20.20828,303,96,-2140
20.40362,351,85,-2057
20.59865,308,64,-2070
20.79865,405,-2,-2061
20.99399,423,26,-2016
20.118932,323,76,-1959
20.138435,274,58,-1972
20.157969,242,85,-1988
20.177503,332,78,-1940
20.197006,360,32,-2047
20.216540,294,44,-2115
20.236073,335,132,-1902
20.256073,103,241,-1784
20.275607,-261,285,-1884
20.295110,-159,289,-2195
20.314644,-84,307,-2252
20.334178,-170,419,-2184
20.353681,-133,510,-2106
20.373215,-200,449,-1775
20.392748,-267,557,-1965
20.412251,-200,744,-2270
20.432251,-120,724,-2047
20.451785,-163,733,-1770
20.471319,-243,892,-1761
20.490822,-177,1008,-1793
20.510356,-68,1067,-1781
20.529889,-22,1087,-1718
20.549393,-25,1024,-1457
20.568926,-74,1119,-1350
20.588460,-156,1428,-1472
20.608460,-288,1705,-1556
20.627994,-295,1708,-1302
20.647497,-154,1548,-1086
20.667030,-152,1526,-1232
20.686534,-256,1603,-1052
20.706067,-290,1724,-766
20.725601,-247,1814,-722
20.745135,-168,1835,-686
20.764638,-72,1814,-986
20.784638,58,1703,-1220
20.804172,24,1798,-938
20.823705,-179,1926,-868
20.843208,-86,1756,-933
20.862742,78,1785,-679
20.882276,-83,1997,-579
20.901779,-122,2096,-556
20.921313,76,2085,-284
20.940846,267,1837,-127
20.960846,328,1708,-42
20.980350,110,1960,164
20.999883,-147,2285,116
21.19417,-59,2322,-136
21.38920,130,2158,7
21.58454,166,1876,460
21.77987,239,1678,532
21.97491,191,1926,246
21.117024,21,2055,141
21.137024,21,1969,337
21.156558,-17,2040,471
21.176061,-67,2010,426
21.195595,-40,2062,507
21.215098,-54,2122,605
21.234632,101,1624,523
21.254165,187,1312,591
21.273669,-65,1589,857
21.293202,44,1774,999
21.313202,467,1889,1123
21.332706,360,1733,1130
21.352239,178,1562,1073
21.371742,278,1805,1242
21.391276,257,1905,1362
21.410810,174,1649,1287
21.430313,107,1248,1153
21.449847,139,1230,1251
21.469350,199,1490,1465
21.489350,74,1430,1458
21.508883,76,1273,1446
21.528387,285,1224,1474
21.547920,221,1215,1496
21.567424,107,1185,1624
21.586619,289,1078,1694
21.606519,348,964,1655
21.626053,235,924,1703
21.645586,230,837,1812
21.665090,141,633,1665
21.685090,98,555,1630
21.704623,321,542,1899
21.724157,219,523,1774
21.743660,-20,408,1755
21.763194,191,-45,2135
21.782697,305,-390,2176
21.802231,132,-320,2006
21.821764,128,-302,1958
21.841268,244,-413,2069
21.861268,148,-384,1937
21.880801,10,-399,1665
21.900335,173,-545,1906
21.919838,158,-609,1928
21.939372,10,-711,1683
21.958905,148,-934,1764
21.978409,144,-1033,1753
21.997942,-25,-1074,1565
22.17476,-86,-1284,1517
22.37476,-47,-1384,1655
22.56979,-25,-1379,1533
22.76513,-58,-1534,1294
22.96047,-115,-1625,1271
22.115550,-175,-1602,1110
22.135083,-161,-1693,907
22.154617,-111,-1879,921
22.174151,-54,-1984,955
22.193654,-31,-2013,771
22.213654,-50,-2027,480
22.233188,-100,-2045,446
22.252721,-195,-2120,510
22.272225,-109,-2216,482
22.291758,-15,-2032,282
22.311292,-145,-1782,57
22.330795,-99,-1911,133
22.350329,-15,-2066,164
22.369862,-156,-2036,33
22.389862,-217,-2090,-40
22.409366,-193,-2148,-90
22.428899,-158,-2065,-174
22.448433,-118,-2048,-286
22.467936,-177,-2084,-402
22.487470,-183,-2025,-534
22.507004,-117,-1972,-627
22.526507,-133,-1934,-704
22.546040,-127,-1945,-752
22.566040,-154,-1986,-804
22.585574,-277,-1923,-933
22.605077,-258,-1845,-984
22.624611,-233,-1781,-991
22.644145,-290,-1782,-1059
22.663678,-290,-1786,-1116
22.683182,-313,-1659,-1150
22.702715,-292,-1654,-1229
22.722249,-215,-1631,-1318
22.742249,-143,-1506,-1350
22.761783,-124,-1504,-1415
22.781286,-218,-1490,-1491
22.800820,-215,-1422,-1491
22.820353,-172,-1368,-1506
22.839887,-300,-1338,-1520
22.859390,-302,-1288,-1515
22.878924,-186,-1252,-1613
22.898457,-258,-1293,-1715
22.918457,-270,-1286,-1659
22.937961,-174,-1232,-1600
22.957494,-200,-1190,-1631
22.977028,-243,-1090,-1643
22.996531,-250,-1018,-1690
23.16065,-259,-1015,-1750
23.35599,-243,-954,-1763
23.55102,-286,-840,-1854
23.74635,-317,-831,-1927
23.94635,-217,-870,-1888
23.114169,-168,-793,-1888
23.133703,-222,-754,-1998
23.153206,-183,-802,-1941
23.172740,-59,-695,-1757
23.192273,-2,-522,-1915
23.211777,7,-500,-2036
23.231310,30,-418,-2022
23.250844,60,-293,-2077
23.270844,105,-295,-1961
23.290378,183,-274,-2016
23.309881,230,-234,-2150
23.329415,224,-111,-2113
23.348948,242,21,-2127
23.368451,239,101,-2023
23.387985,264,305,-2002
23.407519,289,241,-1997
23.427052,271,214,-1840
23.447052,316,594,-1897
23.466556,319,730,-1931
23.486089,239,730,-1929
23.505592,139,848,-1868
23.525126,135,898,-1652
23.544660,176,930,-1652
23.564163,130,1014,-1763
23.583359,107,1078,-1761
23.603258,117,1119,-1729
23.622792,116,1198,-1729
23.642792,157,1199,-1697
23.662295,187,1171,-1556
23.681829,85,1185,-1463
23.701363,-20,1264,-1499
23.720866,-15,1358,-1481
23.740400,-104,1389,-1465
23.759933,-245,1396,-1513
23.779436,-184,1421,-1461
23.798970,-99,1524,-1343
23.818970,-86,1615,-1216
23.838473,10,1640,-1190
23.858007,39,1667,-1334
23.877541,-18,1680,-1338
23.897044,42,1744,-1145
23.916578,24,1826,-945
23.936111,-61,1835,-820
23.955614,-74,1839,-770
23.975148,-83,1910,-736
23.995148,-42,2114,-500
24.14682,-92,1999,167
24.34185,-75,1769,58
24.53719,114,1947,-593
24.73252,12,1708,151
24.92756,-125,1460,1067
24.112289,-17,1921,865
24.131823,0,2049,646
24.151357,-61,1842,814
24.171357,-47,1987,860
24.190860,-20,1972,837
24.210394,-20,1608,903
24.229927,-17,1398,1062
24.249430,-31,1249,1342
24.268964,-72,990,1042
24.288498,-243,1210,921
24.308001,-440,1569,2167
24.327535,-383,1140,2965
24.347535,-354,878,2171
24.367068,-386,1007,1442
24.386602,-288,858,1615
24.406105,-238,876,1828
24.425639,-220,814,1656
24.445173,-209,526,1596
24.464706,-208,521,1753
24.484209,-202,541,1855
24.503743,-215,380,2017
24.523743,-168,289,1992
24.543277,-127,189,1826
24.562780,-131,85,1908
24.582314,-97,44,1940
24.601847,-74,-59,1931
24.621381,-90,-177,2015
24.640884,-90,-254,1967
24.660418,-72,-350,1897
24.679952,-61,-467,1858
24.699952,-63,-520,1837
24.719455,-52,-536,1914
24.738988,-56,-593,1928
24.758522,-56,-690,1867
24.778025,-29,-736,1862
24.797559,-17,-790,1840
24.817093,-24,-877,1755
24.836596,-34,-883,1719
24.856130,-27,-943,1698
24.876130,-25,-1043,1617
24.895633,-31,-1052,1573
24.915166,3,-1120,1608
24.934700,5,-1231,1580
24.954203,-93,-1284,1473
24.973737,-97,-1381,1467
24.993271,-17,-1486,1444
25.12774,-34,-1556,1326
25.32308,-40,-1613,1244
25.52308,-20,-1647,1208
25.71811,-40,-1682,1105
25.91344,-74,-1788,969
25.110878,-97,-1932,907
25.130381,-61,-1973,849
25.149915,-8,-1929,762
25.169449,-31,-1925,635
25.188952,-108,-2018,526
25.208486,-159,-1997,408
25.228486,-100,-1890,241
25.248019,-13,-2068,187
25.267522,-102,-2236,210
25.287056,-172,-2179,83
25.306590,-86,-2123,-129
25.326093,-42,-2066,-243
25.345627,-54,-2061,-302
25.365130,-50,-2000,-458
25.384664,3,-1890,-620
25.404664,14,-2023,-670
25.424197,-22,-2116,-813
25.443700,1,-1932,-986
25.463234,28,-1741,-1041
25.482737,49,-1661,-1193
25.502271,71,-1531,-1407
25.521805,94,-1374,-1440
25.541308,73,-1452,-1518
25.560842,-2,-1318,-1848
25.580842,30,-981,-1984
25.600345,62,-963,-1857
25.619878,41,-879,-1720
25.639382,69,-672,-1715
25.658915,67,-627,-1886
25.678418,53,-590,-1957
25.697952,87,-529,-2020
25.717455,-24,-474,-2038
25.736989,-145,-317,-1965
25.756989,44,-120,-2041
25.776492,128,-36,-2066
25.796026,48,-49,-2123
25.815529,103,26,-2138
25.835063,121,194,-1940
25.854566,89,207,-1957
25.874100,58,196,-2031
25.893603,57,376,-2004
25.913136,57,474,-1984
25.933136,-9,380,-1911
25.952640,53,371,-1995
25.972143,119,474,-1979
25.991676,51,489,-1848
26.11180,39,562,-1973
26.30713,51,717,-2065
26.50217,58,712,-1916
26.69720,91,676,-1790
26.89253,101,789,-1890
26.109253,80,951,-1948
26.128757,42,1040,-1793
26.148290,24,1110,-1682
26.167793,46,1226,-1704
26.187327,32,1117,-1525
26.206830,37,998,-1338
26.226364,51,1455,-1438
26.245867,-58,1881,-1336
26.265401,-83,1721,-1070
26.285401,7,1628,-958
26.304904,-24,1830,-991
26.324438,-74,1862,-820
26.343971,-42,1801,-563
26.363475,-70,1967,-691
26.383008,-117,2128,-556
26.402511,-79,2033,-199
26.422045,-77,1924,-163
26.441579,-150,1978,51
26.461579,-170,2031,373
26.481082,-181,2064,374
26.500616,-183,1946,314
26.520119,-109,1835,501
26.539653,-115,2008,678
26.559156,-131,1939,551
26.579664,-108,1735,542
26.598251,-136,1799,673
26.617785,-134,1785,642
26.637288,-136,1765,626
26.657288,-122,1885,701
26.676822,-200,1949,812
26.696325,-231,1906,582
26.715859,85,1801,282
26.735392,-24,1946,566
26.754895,-431,2192,798
26.774399,-263,2005,662
26.793932,-81,1881,723
26.813435,-177,1905,880
26.833435,-159,1685,844
26.852969,-86,1676,944
26.872503,-74,1773,1190
26.892006,-34,1606,1223
26.911540,28,1510,1249
26.931043,57,1510,1412
26.950546,87,1405,1569
26.970080,124,1281,1648
26.989613,80,1151,1573
27.9613,17,1057,1546
27.29117,33,996,1640
27.48650,55,835,1681
27.68154,33,674,1671
27.87687,21,582,1776
27.107190,87,412,1867
27.126724,92,283,1776
27.146227,60,189,1858
27.165761,135,-52,2047
27.185761,149,-272,2042
27.205264,91,-318,2021
27.224798,119,-375,1956
27.244331,123,-527,1796
27.263835,87,-597,1776
27.283368,48,-641,1994
27.302872,19,-752,2115
27.322405,55,-713,1901
27.341908,101,-670,1617
27.361908,135,-716,1514
27.381442,55,-641,1460
27.400976,-184,-550,1449
27.420479,-463,-488,1655
27.440013,-656,-399,1887
27.459516,-736,-292,1924
27.479019,-800,-209,1767
27.498553,-933,-138,1671
27.518086,-1120,-70,1685
27.538086,-1193,-47,1558
27.557590,-1243,41,1492
27.577123,-1418,133,1505
27.596626,-1636,148,1390
27.616160,-1859,217,1255
27.635663,-1904,260,1065
27.655197,-1786,244,892
27.674700,-1854,326,883
27.694234,-2038,314,840
27.714234,-2018,192,630
27.733737,-1968,151,514
27.753271,-2113,82,551
27.772774,-2220,3,476
27.792308,-2148,-61,233
27.811811,-2098,-117,51
27.831344,-2218,-168,46
27.850848,-2206,-365,64
27.870351,-2059,-547,64
27.890351,-2102,-645,23
27.909884,-2138,-693,32
27.929388,-2022,-715,48
27.948921,-1850,-1047,-204
27.968425,-1816,-1274,-131
27.987958,-1672,-1270,244
28.7461,-1400,-1554,224
28.26995,-1436,-1670,116
28.46498,-1270,-1499,98
28.66498,-891,-1584,180
28.86032,-824,-1847,310
28.105566,-872,-1911,257
28.125069,-920,-1932,160
28.144602,-704,-1961,194
28.164106,-150,-1781,353
28.183639,-52,-1811,462
28.203173,-372,-2095,407
28.222676,-392,-2163,342
28.242676,-200,-2013,273
28.262210,-17,-1938,278
28.281713,180,-2073,494
28.301247,333,-2075,537
28.320780,367,-1982,374
28.340284,348,-1963,324
28.359817,430,-1918,351
28.379321,541,-1965,430
28.398854,607,-1925,448
28.418854,682,-1793,399
28.438388,776,-1809,441
28.457891,849,-1818,446
28.477425,903,-1732,385
28.496928,967,-1657,391
28.516462,1055,-1706,430
28.535995,1149,-1904,555
28.555498,1189,-1884,630
28.574725,1114,-1650,448
28.594594,1044,-1549,299
28.614594,1128,-1527,305
28.634128,1271,-1484,342
28.653631,1356,-1450,364
28.673165,1358,-1484,271
28.692668,1455,-1543,269
28.712201,1524,-1552,332
28.731705,1478,-1525,292
28.751238,1592,-1497,382
28.770741,1598,-1411,385
28.790741,1564,-1311,203
28.810275,1778,-1304,158
28.829778,1840,-1202,201
28.849312,1783,-1024,242
28.868815,1928,-938,224
28.888349,2033,-820,83
28.907852,2039,-570,-40
28.927386,2076,-295,-17
28.946889,2037,-199,107
28.966889,1992,-188,128
28.986423,1842,76,-22
29.5956,1633,453,-127
29.25459,1856,699,-159
29.44993,2035,987,-149
29.64496,1562,1214,66
29.84030,1240,1242,255
29.103533,1392,1383,60
29.123067,1265,1580,-188
29.143067,1090,1433,-131
29.162570,1280,1315,-49
29.182104,1107,1776,-104
29.201607,576,2217,-102
29.221141,598,2028,-72
29.240674,880,1728,-134
29.260177,771,1767,-197
29.279681,571,1894,-183
29.299214,491,1947,-158
29.319214,421,2008,-152
29.338748,385,2019,-163
29.358251,310,1971,-170
29.377785,210,1994,-156
29.397288,201,2044,-168
29.416822,149,2172,-188
29.436355,78,2092,-254
29.455859,60,1517,-240
29.475392,-77,1955,-163
29.495392,-184,2744,-363
29.514895,-220,2026,-315
29.534429,-349,1726,-40
29.553963,-390,2019,-84
29.573466,-434,1783,-129
29.593000,-634,1855,-67
29.612503,-727,2015,-34
29.632037,-722,1717,-124
29.651570,-900,1406,-158
29.671570,-1174,1471,8
29.691073,-1445,1619,142
29.710607,-1540,1564,108
29.730110,-1407,1448,-18
29.749644,-1375,1431,-47
29.769178,-1575,1398,44
29.788681,-1879,1214,144
29.808215,-2020,1023,132
29.827718,-1909,798,-29
29.847718,-1852,628,-83
29.867251,-2122,715,12
29.886755,-2448,615,-18
29.906288,-2413,312,-108
29.925791,-2150,185,-125
29.945325,-1957,-4,-156
29.964859,-1909,-233,-181
29.984362,-1922,-217,-181
30.3896,-1986,-250,-192
30.23896,-2041,-500,-209
30.43429,-1982,-641,-188
30.62933,-1990,-791,-156
30.82466,-1995,-1045,-172
30.102000,-1845,-1075,-211
30.121503,-1695,-1100,-229
30.141037,-1500,-1297,-227
30.160571,-1357,-1363,-218
30.180074,-1422,-1507,-195
30.200074,-1340,-1679,-208
30.219607,-1066,-1590,-231
30.239111,-990,-1691,-165
30.258644,-1056,-1895,-122
30.278147,-875,-1777,-172
30.297681,-588,-1772,-136
30.317184,-525,-2009,-42
30.336718,-431,-2023,-24
30.356221,-275,-2050,28
30.376221,-134,-2323,137
30.395755,32,-2340,183
30.415258,19,-2141,191
30.434792,78,-2141,174
30.454325,271,-2043,146
30.473829,169,-1872,116
30.493362,99,-2070,73
30.512896,249,-2184,82
30.532399,360,-2034,128
30.552399,508,-1997,82
30.571933,592,-2061,133
30.591098,746,-2266,274
30.611028,782,-2231,1
30.630562,612,-1629,-218
30.650065,924,-1332,-36
30.669599,1242,-1550,105
30.689133,1126,-1543,310
30.708636,1123,-1482,366
30.728169,1281,-1790,83
30.748169,1435,-2134,-100
30.767673,1608,-2063,-136
30.787206,1699,-1681,-156
30.806740,1626,-1216,-100
30.826243,1614,-766,-25
30.845777,1808,-706,17
30.865280,2194,-1025,-6
30.884814,2371,-1095,-124
30.904317,2021,-683,-142
30.924317,1601,-122,-22
30.943851,1539,274,203
30.963384,1912,371,421
30.982887,2153,389,307
31.2421,1678,594,112
31.21955,1467,851,148
31.41458,1972,946,69
31.60992,1640,783,-40
31.80495,632,730,121
31.100495,364,1371,323
31.120029,257,2187,332
31.139562,287,2278,101
31.159065,701,2181,-168
31.178599,373,2467,-49
31.198102,-75,2465,196
31.217636,180,2067,51
31.237170,187,1853,-127
31.256673,-4,1876,-125
31.276673,-127,1978,-118
31.296206,-324,2044,-86
31.315710,-277,2042,-177
31.335243,-324,2164,-324
31.354747,-561,2255,-238
31.374280,-583,1976,-136
31.393783,-602,1719,-183
31.413317,-665,1730,-208
31.432820,-715,1723,-163
31.452820,-975,1753,-113
31.472354,-1150,1783,-147
31.491888,-963,1717,-224
31.511391,-911,1737,-258
31.530925,-1193,2047,-250
31.550428,-1263,2101,-288
31.569961,-1152,1580,-283
31.589465,-1154,1519,-211
31.608998,-1133,1724,-318
31.628998,-1186,1555,-331
31.648532,-1295,1574,-175
31.668035,-1320,1717,-138
31.687569,-1399,1683,-120
31.707072,-1277,1571,-213
31.726606,-1104,1544,-297
31.746139,-1290,1558,-152
31.765643,-1275,1385,-113
31.785176,-1241,1449,-170
31.805176,-1454,1692,-102
31.824710,-1245,1478,-154
31.844213,-1299,1326,-193
31.863747,-1661,1440,-61
31.883280,-1575,1435,-56
31.902784,-1622,1433,-93
31.922317,-1661,1390,-100
31.941851,-1525,1349,-142
31.961354,-1556,1330,-159
31.981354,-1597,1283,-156
32.888,-1638,1298,-147
32.20422,-1624,1317,-152
32.39925,-1549,1294,-190
32.59458,-1493,1249,-247
32.78962,-1427,1301,-256
32.98495,-1425,1412,-242
32.118029,-1454,1424,-256
32.137532,-1388,1399,-297
32.157532,-1272,1451,-318
32.177066,-1316,1530,-325
32.196600,-1332,1467,-368
32.216103,-1134,1401,-359
32.235636,-1158,1542,-309
32.255140,-1318,1576,-227
32.274673,-1375,1503,-131
32.294207,-1336,1576,-152
32.313710,-1232,1556,-152
32.333710,-1384,1549,-79
32.353244,-1495,1626,-42
32.372778,-1356,1628,-90
32.392281,-1318,1628,-168
32.411814,-1238,1562,-217
32.431318,-1234,1517,-254
32.450851,-1409,1523,-208
32.470354,-1356,1506,-168
32.489888,-1229,1498,-197
32.509888,-1268,1456,-206
32.529391,-1277,1523,-233
32.548925,-1293,1621,-261
32.568459,-1368,1558,-263
32.587624,-1345,1517,-293
32.607524,-1322,1505,-331
32.627057,-1354,1430,-313
32.646591,-1350,1385,-286
32.666094,-1413,1412,-325
32.685628,-1475,1460,-325
32.705628,-1431,1403,-377
32.725162,-1456,1235,-400
32.744665,-1477,1280,-154
32.764198,-1579,1471,-483
32.783702,-1845,1342,-897
32.803235,-1795,960,-572
32.822738,-1690,646,-472
32.842272,-1900,821,-527
32.861775,-1927,1074,-663
32.881775,-1840,653,-813
32.901309,-2040,341,-542
32.920843,-2206,508,-370
32.940346,-2111,360,-425
32.959880,-2007,-4,-488
32.979383,-1995,-161,-652
32.998916,-2086,-133,-758
33.18420,-2152,73,-697
33.37953,-2088,205,-697
33.57953,-2082,119,-663
33.77456,-2013,-118,-452
33.96990,-1913,-406,-270
33.116493,-1961,-286,-193
33.136027,-1838,85,-172
33.155561,-1668,30,-188
33.175064,-1727,-33,-331
33.194567,-1868,249,-583
33.214101,-2032,182,-691
33.234101,-1988,-133,-665
33.253634,-1700,-184,-575
33.273138,-1691,-29,-461
33.292641,-1843,92,-454
33.312175,-1757,74,-429
33.331708,-1934,-104,-613
33.351211,-2225,-288,-899
33.370745,-2148,-31,-786
33.390248,-1982,133,-815
33.410248,-1777,8,-981
33.429782,-1770,33,-813
33.449285,-1886,30,-695
33.468819,-1745,35,-861
33.488352,-1756,107,-1022
33.507856,-1881,48,-966
33.527389,-1729,67,-834
33.546893,-1613,210,-799
33.566426,-1686,237,-813
33.586426,-1699,332,-966
33.605960,-1606,224,-1434
33.625463,-1711,19,-1449
33.644997,-1770,57,-1018
33.664500,-1590,80,-1129
33.684034,-1511,169,-1390
33.703567,-1497,210,-1375
33.723071,-1607,92,-1263
33.742604,-1709,28,-1215
33.762604,-1582,55,-1359
33.782138,-1499,82,-1395
33.801641,-1422,105,-1452
33.821175,-1320,87,-1595
33.840708,-1322,103,-1513
33.860212,-1270,185,-1399
33.879745,-1213,135,-1400
33.899279,-1166,105,-1532
33.918782,-1138,208,-1766
33.938782,-1188,255,-1824
33.958316,-1025,117,-1597
33.977850,-959,-222,-1763
33.997353,-1074,-249,-2104
34.16886,-943,-27,-1940
34.36390,-858,-45,-1840
34.55923,-833,-52,-1815
34.75457,-766,-18,-1632
34.94960,-681,41,-1756
34.114960,-702,146,-2073
34.134494,-863,146,-2152
34.153997,-752,255,-2163
34.173531,-518,403,-2134
34.193064,-381,230,-1799
34.212568,-320,73,-1531
34.232101,-200,178,-1624
34.251604,174,276,-1997
34.271138,330,396,-2390
34.291138,158,433,-2338
34.310641,224,274,-1990
34.330175,510,198,-1809
34.349709,740,171,-1806
34.369212,798,83,-1800
34.388746,787,55,-1727
34.408249,1005,28,-1741
34.427782,1165,-68,-1782
34.447316,996,-159,-1532
34.467316,1092,-167,-1384
34.486819,1467,-127,-1532
34.506353,1521,-170,-1531
34.525856,1314,-277,-1284
34.545390,1290,-268,-1193
34.564893,1623,-99,-1507
34.584089,1842,-13,-1716
34.603988,1781,-61,-1581
34.623522,1578,-43,-1309
34.643025,1501,-59,-1181
34.663025,1748,-200,-1038
34.682559,1801,-358,-750
34.702093,1667,-347,-1002
34.721596,1598,-202,-1297
34.741130,1596,-209,-1104
34.760633,1714,-302,-915
34.780166,1828,-318,-833
34.799700,1964,-270,-950
34.819203,2021,-211,-1041
34.839203,1915,-227,-883
34.858737,1967,-136,-1147
34.878240,2089,-81,-1236
34.897774,2040,-274,-770
34.917277,2015,-383,-777
34.936811,2065,-408,-791
34.956344,2142,-399,-599
34.975848,2133,-363,-716
34.995381,2047,-600,-1000
35.15381,2167,-609,-865
35.34884,2203,-172,-183
35.54418,2006,-61,133
35.73921,1881,-74,148
35.93455,1819,91,296
35.112958,1783,142,328
35.132492,1742,139,360
35.151995,1792,96,578
35.171529,1921,16,807
35.191529,1926,7,864
35.211032,1819,55,862
35.230566,1678,92,864
35.250069,1631,82,971
35.269602,1674,33,1146
35.289136,1615,16,1139
35.308639,1460,110,1223
35.328173,1440,167,1549
35.347676,1514,44,1598
35.367676,1449,-13,1399
35.387210,1244,128,1442
35.406713,1010,319,1621
35.426247,858,419,1585
35.445750,894,328,1573
35.465284,1058,149,1899
35.484787,1067,116,1872
35.504321,989,107,1523
35.523824,924,98,1723
35.543824,705,244,1856
35.563357,662,262,1783
35.582861,830,78,2039
35.602394,803,66,1910
35.621897,649,183,1731
35.641431,542,167,2003
35.660934,585,185,1999
35.680437,551,248,1847
35.699971,414,278,1876
35.719971,407,371,1931
35.739474,392,335,1830
35.759008,403,308,1871
35.778542,241,439,2035
35.798045,8,383,1842
35.817579,91,298,1774
35.837082,189,382,1905
35.856585,196,344,1867
35.876119,217,230,1846
35.896119,194,203,1806
35.915622,23,235,1789
35.935155,-184,249,1864
35.954659,-313,169,1831
35.974192,-506,144,1821
35.993696,-629,228,1937
36.13229,-668,248,1947
36.32732,-763,212,1847
36.52266,-816,171,1792
36.72266,-966,142,1810
36.91769,-1036,114,1764
36.111303,-947,23,1590
36.130806,-1156,39,1571
36.150340,-1340,135,1623
36.169873,-1352,33,1389
36.189377,-1509,-117,1124
36.208910,-1675,-122,1082
36.228414,-1750,-115,1033
36.248414,-1890,-129,896
36.267947,-2048,-90,871
36.287450,-1865,-83,855
36.306984,-1747,-150,592
36.326518,-1995,-177,367
36.346021,-2023,-159,353
36.365555,-1947,-161,230
36.385088,-2111,-142,33
36.404592,-2193,-117,-75
36.424592,-2022,-167,-186
36.444125,-1934,-172,-217
36.463659,-2073,-72,-256
36.483162,-2166,-36,-459
36.502665,-2013,-127,-533
36.522199,-1743,-249,-581
36.541733,-1718,-258,-836
36.561236,-1891,-163,-999
36.580431,-1866,-142,-1015
36.600331,-1634,-161,-941
36.620331,-1541,-125,-981
36.639865,-1674,-81,-1297
36.659399,-1700,-40,-1427
36.678902,-1527,-52,-1279
36.698435,-1402,-90,-1268
36.717939,-1552,-11,-1440
36.737472,-1629,60,-1504
36.757006,-1349,-8,-1422
36.776509,-1184,-83,-1475
36.796509,-1190,-83,-1607
36.816043,-1100,-74,-1666
36.835546,-1088,-49,-1732
36.855080,-1111,-9,-1761
36.874583,-997,-45,-1834
36.894117,-974,-68,-1872
36.913650,-984,-20,-1834
36.933154,-856,-24,-1923
36.952657,-784,-63,-1931
36.972657,-756,-67,-1936
36.992190,-727,-90,-2057
37.11694,-652,-117,-1972
37.31227,-579,-92,-1920
37.50730,-595,-63,-2061
37.70264,-534,-120,-2098
37.89767,-442,-152,-2098
37.109301,-375,-72,-2200
37.128835,-379,-138,-2156
37.148835,-477,-90,-1559
37.168338,-497,142,-1274
37.187872,-304,55,-1893
37.207375,-59,-58,-2307
37.226908,-72,-50,-2291
37.246412,-129,5,-2248
37.265945,-99,110,-2065
37.285448,-167,-29,-1825
37.304982,-40,-183,-1807
37.324982,219,-40,-2032
37.344485,166,198,-2195
37.364019,-4,208,-2125
37.383522,92,-18,-2061
37.403056,408,-145,-2127
37.422559,646,-63,-2095
37.442093,591,17,-1986
37.461596,492,5,-1981
37.481130,599,19,-2063
37.501130,692,80,-2059
37.520633,790,58,-1925
37.540166,999,87,-1873
37.559700,1003,187,-1856
37.579203,912,78,-1702
37.598737,1207,-29,-1459
37.618240,1546,58,-1168
37.637774,1544,67,-1108
37.657277,1524,66,-1322
37.677277,1646,191,-1338
37.696811,1737,271,-1124
37.716344,1715,269,-961
37.735848,1735,224,-836
37.755381,1946,137,-609
37.774884,2087,119,-424
37.794418,2064,158,-511
37.813952,2047,178,-518
37.833455,2008,158,-290
37.853455,1962,217,-174
37.872989,1905,276,298
37.892492,1992,-47,728
37.912026,2112,-104,123
37.931559,2085,324,-577
37.951062,2201,305,-574
37.970596,2106,153,66
37.990099,1858,191,690
38.9633,1990,162,494
38.29633,1994,130,457
38.49167,1655,41,1092
38.68670,1637,182,1228
38.88204,1892,219,1010
38.107737,1942,167,876
38.127240,1939,423,389
38.146774,1790,362,435
38.166277,1524,167,1424
38.185811,1474,-54,1874
38.205811,1524,-106,1349
38.225345,1514,199,1040
38.244848,1373,212,1194
38.264382,1351,107,1398
38.283885,1540,32,1610
38.303418,1569,-36,1481
38.322922,1499,44,1242
38.342455,1503,21,1353
38.361989,1503,-54,1494
38.381989,1535,-22,1412
38.401492,1623,39,1253
38.421026,1656,49,1299
38.440560,1535,-13,1398
38.460063,1423,-11,1351
38.479596,1467,82,1476
38.499100,1505,110,1565
38.518633,1428,58,1421
38.538167,1360,82,1430
38.558167,1408,198,1442
38.577670,1417,292,1444
38.597204,1448,324,1564
38.616707,1535,346,1496
38.636241,1310,442,1305
38.655774,1196,760,1226
38.675278,1510,1371,1301
38.694811,1644,1796,1292
38.714314,1533,1676,858
38.734314,1542,1587,512
38.753848,1712,1780,698
38.773382,1803,1751,923
38.792885,1656,1285,1048
38.812419,1523,742,1351
38.831922,1489,187,1685
38.851456,1564,-650,1799
38.870989,1476,-1638,1935
38.890492,64,-3386,2303
38.910492,-2509,-6216,2810
38.930026,-4275,-7878,3608
38.949560,-4464,-6884,4340
38.969063,-3936,-4457,4701
38.988597,-3347,-1566,4888
39.8130,-2589,1435,4726
39.27633,-1250,4010,4054
39.47167,864,6159,2771
39.66670,2806,7593,1339
39.86670,3290,7513,208
39.106204,2760,6583,-668
39.125738,2324,5835,-1106
39.145241,2239,5219,-1361
39.164775,2224,4772,-1536
39.184278,1815,4515,-1149
39.203811,1155,4306,-177
39.223345,589,4113,1062
39.242848,137,3565,1939
39.262848,-22,2755,1864
39.282382,-493,2242,2049
39.301885,-1790,1424,3685
39.321419,-3098,-552,5349
39.340922,-4855,-3597,6508
39.360456,-6851,-6550,7456
39.379989,-6782,-7703,6704
39.399493,-5495,-7125,4513
39.419026,-5400,-5903,3351
39.439026,-5896,-4075,3794
39.458529,-5637,-1466,4365
39.478063,-4911,1342,4495
39.497597,-4630,3637,4519
39.517100,-4057,6029,4536
39.536634,-1856,8752,3929
39.556137,1551,10952,2344
39.577316,4356,12439,632
39.595232,5038,12386,-975
39.614736,4597,11470,-2068
39.634736,3472,11364,-1624
39.654269,728,11123,26
39.673772,-2098,10459,2153
39.693306,-3927,9875,4711
39.712840,-6484,7177,7043
39.732343,-10039,1228,8281
39.751877,-12860,-5753,9941
39.771380,-16452,-14724,10416
39.790914,-18618,-21196,5245
39.810914,-15270,-15615,1226
39.830417,-11158,-4054,4179
39.849950,-9067,4204,6861
39.869454,-5457,10588,6870
39.888987,760,15930,6324
39.908490,4776,18058,3656
39.928024,4778,17276,-104
39.947527,6276,16930,-2827
39.967061,7013,17071,-3164
39.987061,1440,14225,1412
40.6564,-4712,7990,7474
40.26098,-10890,-3330,10661
40.45601,-21255,-20412,10586
40.65135,-25433,-28324,5177
40.84638,-19145,-16108,833
40.104172,-10576,3172,4067
40.123675,-1541,15528,8381
40.143208,4977,19929,8331
40.163208,7149,20649,3940
40.182742,9447,20695,-618
40.202245,7902,18610,-522
40.221748,-634,12982,3094
40.241282,-6934,5085,7606
40.260816,-10597,-6573,10793
40.280319,-18147,-21398,8411
40.299853,-21443,-26751,1298
40.319356,-16166,-15102,-1424
40.339356,-9035,2581,2355
40.358890,-575,14562,7249
40.378393,4401,17269,9173
40.397896,4588,16332,5820
40.417430,7497,17458,1635
40.436933,7745,16578,1058
40.456467,949,12336,3654
40.475970,-4662,6836,7006
40.495503,-8832,-3004,8047
40.515503,-17820,-19311,6842
40.535007,-24492,-29172,3303
40.554540,-20221,-17995,1344
40.574043,-9805,2842,4736
40.593547,-550,14376,8663
40.613080,2885,16119,9529
40.632583,3822,17219,6118
40.652117,7543,19390,792
40.671620,8225,18367,-1124
40.691620,1933,14419,1314
40.711154,-4443,9079,6372
40.730657,-6466,1905,10007
40.750191,-12412,-10821,10766
40.769694,-21864,-25330,7947
40.789197,-21059,-24810,2062
40.808731,-13390,-8498,892
40.828234,-5884,7820,4977
40.847737,2010,15948,8681
40.867737,5970,17478,9091
40.887271,6622,17480,4754
40.906774,6338,16517,-11
40.926308,3544,13250,-850
40.945811,-640,8990,1699
40.965345,-3197,4361,5472
40.984848,-5959,-2750,9018
41.4351,-12687,-13992,10332
41.23885,-17631,-22064,6047
41.43885,-14874,-17465,1171
41.63388,-9701,-4427,1530
41.82922,-5523,6922,4683
41.102425,-268,13610,8579
41.121958,4856,16976,8963
41.141462,7324,17389,3547
41.160995,7306,15782,-1297
41.180498,3904,12628,-999
41.200002,-1406,6815,1044
41.220002,-4209,-1263,3363
41.239535,-8108,-11030,9036
41.259039,-12969,-17661,11871
41.278572,-11565,-14210,7279
41.298075,-5405,-3454,2837
41.317579,762,5908,1349
41.337112,4304,9298,848
41.356615,4351,8386,1123
41.376149,3354,6504,1283
41.396149,2487,4460,971
41.415652,1276,2717,457
41.435186,130,1139,1140
41.454689,241,155,2603
41.474192,1098,-222,2433
41.493726,376,-2041,1994
41.513229,-183,-1425,955
41.532763,1430,566,237
41.552266,1874,-1859,1481
41.572266,519,-3045,1580
41.592347,139,-1459,1274
41.611362,566,-1507,1355
41.630865,928,-2090,1107
41.650398,1010,-1900,1256
41.669902,898,-1579,1265
41.689435,910,-1477,1265
41.708938,926,-1322,1298
41.728472,1078,-1338,932
41.747975,1217,-1597,685
41.767975,1240,-1593,541
41.787509,1249,-1327,128
41.807012,1390,-1170,-431
41.826546,1755,-968,-1068
41.846049,1724,-622,-1252
41.865583,1464,-500,-888
41.885086,1733,-484,-1047
41.904620,2039,-433,-1579
41.924123,1783,-415,-1349
41.944123,1515,-370,-920
41.963656,1524,-263,-1079
41.983160,1476,-77,-1336
42.2693,1315,174,-1472
42.22227,1228,382,-1672
42.41730,1303,407,-1775
42.61264,1351,308,-1636
42.80767,1344,207,-1482
42.100301,1364,171,-1500
42.120301,1383,191,-1706
42.139804,1265,285,-1913
42.159338,1087,391,-1827
42.178841,1008,349,-1511
42.198374,933,417,-1565
42.217878,960,544,-1954
42.237381,1014,453,-1982
42.256915,896,355,-1613
42.276418,923,246,-1445
42.296418,1133,178,-1893
42.315951,1073,228,-2036
42.335455,862,282,-1700
42.354988,873,276,-1765
42.374491,937,244,-1829
42.394025,949,262,-1711
42.413528,907,310,-1790
42.433062,792,428,-1911
42.452565,803,503,-1884
42.472565,848,439,-1804
42.492068,762,503,-1859
42.511602,776,592,-1927
42.531105,732,551,-1784
42.550639,610,633,-1786
42.570142,726,694,-1959
42.589645,771,549,-1704
42.609179,721,462,-1579
42.628682,698,635,-1911
42.648682,592,744,-1772
42.668185,621,635,-1563
42.687719,674,635,-1815
42.707222,510,769,-1854
42.726725,442,883,-1866
42.746259,417,951,-1972
42.765762,326,973,-1918
42.785296,357,915,-1854
42.804799,376,851,-1809
42.824799,408,805,-1816
42.844333,469,717,-1802
42.863836,448,707,-1797
42.883370,435,739,-1834
42.902873,471,699,-1807
42.922376,482,664,-1765
42.941910,467,676,-1824
42.961413,462,724,-1911
42.980916,442,751,-1863
43.916,414,733,-1757
43.20450,396,757,-1777
43.39953,358,830,-1884
43.59456,357,810,-1873
43.78990,389,742,-1811
43.98493,378,778,-1820
43.117996,376,796,-1820
43.137530,339,814,-1818
43.157033,301,894,-1848
43.177033,380,833,-1850
43.196567,426,728,-1793
43.216070,341,805,-1784
43.235573,303,865,-1811
43.255107,366,794,-1790
43.274610,376,790,-1824
43.294113,346,824,-1866
43.313647,344,810,-1848
43.333150,330,807,-1854
43.353150,321,807,-1845
43.372653,342,799,-1832
43.392187,346,785,-1815
43.411690,337,776,-1806
43.431193,355,778,-1841
43.450696,341,789,-1831
43.470230,328,810,-1824
43.489733,346,803,-1857
43.509236,337,790,-1827
43.529236,330,798,-1790
43.548770,332,815,-1804
43.568273,312,855,-1818
43.587438,319,853,-1818
43.607338,332,839,-1822
43.626872,285,876,-1836
43.646375,271,853,-1804
43.665909,299,798,-1793
43.685412,285,828,-1834
43.704915,273,844,-1829
43.724915,298,824,-1838
43.744449,312,812,-1852
43.763952,305,799,-1834
43.783455,301,801,-1822
43.802958,303,803,-1822
43.822492,274,814,-1834
43.841995,248,835,-1829
43.861498,260,851,-1847
43.881032,264,851,-1861
43.901032,258,842,-1818
43.920535,269,830,-1786
43.940038,266,826,-1797
43.959572,260,848,-1827
43.979075,271,849,-1816
43.998609,255,851,-1781
44.18112,294,828,-1847
44.37615,316,769,-1873
44.57149,214,842,-1799
44.77149,224,876,-1822
44.96652,285,801,-1847
44.116155,249,817,-1824
44.135689,242,824,-1811
44.155192,248,803,-1816
44.174695,249,819,-1861
44.194198,271,807,-1854
44.213732,278,807,-1824
44.233235,273,815,-1832
44.253235,276,792,-1818
44.272738,289,785,-1804
44.292272,291,787,-1815
44.311775,294,774,-1822
44.331279,312,774,-1850
44.350782,294,787,-1854
44.370315,267,790,-1831
44.389819,282,796,-1838
44.409322,280,821,-1836
44.429322,251,842,-1820
44.448855,241,842,-1825
44.468359,230,855,-1827
44.487862,232,857,-1815
44.507365,257,826,-1799
44.526899,267,823,-1804
44.546402,258,846,-1820
44.565905,262,844,-1820
44.585408,271,837,-1836
44.605408,257,840,-1824
44.624942,244,832,-1809
44.644445,262,828,-1836
44.663948,267,842,-1822
44.683482,248,851,-1795
44.702985,241,858,-1807
44.722519,246,853,-1813
44.742022,255,846,-1822
44.761525,260,842,-1813
44.781525,251,833,-1797
44.801059,242,840,-1822
44.820562,253,840,-1832
44.840065,257,828,-1822
44.859599,253,828,-1827
44.879102,264,828,-1827
44.898636,266,833,-1822
44.918139,262,826,-1827
44.937642,266,815,-1824
44.957642,267,830,-1824
44.977176,264,830,-1832
44.996679,258,815,-1809
45.16213,262,832,-1800
45.35716,262,844,-1824
45.55219,251,832,-1827
45.74753,255,823,-1831
45.94256,264,828,-1831
45.113759,255,848,-1836
45.133759,260,837,-1832
45.153293,294,808,-1841
45.172796,299,848,-1915
45.192299,262,912,-1947
45.211833,232,917,-1891
45.231336,217,892,-1802
45.250839,210,833,-1697
45.270342,237,798,-1693
45.289845,264,833,-1749
45.309845,285,860,-1747
45.329379,317,862,-1747
45.348882,312,869,-1768
45.368385,321,865,-1800
45.387889,314,858,-1800
45.407422,291,853,-1797
45.426925,326,837,-1816
45.446429,310,833,-1799
45.465932,269,851,-1802
45.485932,258,890,-1822
45.505466,228,923,-1809
45.524969,235,908,-1815
45.544472,280,864,-1806
45.563975,305,844,-1784
45.583140,323,840,-1795
45.603071,342,833,-1806
45.622574,373,819,-1825
45.642107,399,801,-1834
45.661611,403,785,-1813
45.681611,387,790,-1818
45.701114,360,794,-1850
45.720647,332,798,-1831
45.740151,298,833,-1816
45.759654,287,848,-1840
45.779187,317,823,-1804
45.798691,333,817,-1777
45.818194,303,862,-1802
45.837727,307,885,-1816
45.857727,342,835,-1791
45.877231,278,878,-1759
45.896764,246,919,-1799
45.916268,324,821,-1824
45.935801,332,817,-1815
45.955304,294,864,-1825
45.974838,305,851,-1832
45.994341,324,846,-1822
46.13844,319,839,-1784
46.33844,308,840,-1786
46.53378,308,842,-1802
46.72881,310,848,-1790
46.92415,294,876,-1782
46.111918,289,892,-1807
46.131452,299,903,-1825
46.150955,312,892,-1813
46.170458,321,860,-1827
46.189992,285,892,-1836
46.209992,262,912,-1840
46.229157,292,862,-1820
46.248719,292,851,-1782
46.268311,283,864,-1781
46.287873,299,844,-1784
46.307435,294,840,-1804
46.327027,276,871,-1825
46.346589,266,898,-1772
46.366150,266,898,-1777
46.385712,292,885,-1843
46.405304,285,871,-1724
46.424866,255,874,-1670
46.444428,289,869,-1791
46.463990,330,826,-1807
46.483551,323,819,-1809
46.503144,307,855,-1829
46.522706,294,880,-1807
46.542267,303,871,-1813
46.561829,308,864,-1799
46.581421,296,864,-1765
46.601321,296,862,-1770
46.620855,305,867,-1791
46.640358,291,864,-1777
46.659861,260,883,-1757
46.679395,271,892,-1774
46.698898,296,880,-1772
46.718401,323,901,-1791
46.737904,303,855,-1838
46.757904,330,921,-1836
46.777438,462,1085,-1836
46.796941,366,998,-1806
46.816445,276,819,-1743
46.835978,280,832,-1665
46.855481,92,1021,-1647
46.874985,44,1087,-1732
46.894518,124,1012,-1718
46.914021,155,978,-1670
46.934021,210,994,-1750
46.953555,244,1015,-1829
46.973058,258,974,-1845
46.992561,271,937,-1852
47.12095,273,940,-1834
47.31598,253,942,-1799
47.51132,242,933,-1784
47.70635,255,914,-1752
47.90138,253,899,-1731
47.110138,232,932,-1761
47.129672,212,971,-1775
47.149175,212,965,-1775
47.168709,228,960,-1786
47.188212,232,960,-1782
47.207746,223,965,-1768
47.227249,208,976,-1745
47.246752,199,965,-1740
47.266286,217,946,-1757
47.286286,228,944,-1765
47.305789,219,949,-1763
47.325323,221,948,-1765
47.344826,224,948,-1765
47.364329,223,957,-1774
47.383863,223,960,-1782
47.403366,219,958,-1779
47.422869,217,949,-1770
47.442403,212,949,-1768
47.462403,198,973,-1766
47.481906,207,973,-1757
47.501440,223,946,-1775
47.520943,223,935,-1782
47.540446,223,944,-1777
47.559949,217,960,-1786
47.579938,210,957,-1756
47.599045,223,937,-1729
47.618548,228,930,-1757
47.638081,217,932,-1770
47.658081,207,940,-1763
47.677585,187,976,-1779
47.697088,217,955,-1802
47.716622,239,896,-1822
47.736125,203,905,-1806
47.755628,198,923,-1777
47.775162,191,914,-1757
47.794665,189,905,-1759
47.814198,205,890,-1774
47.834198,192,894,-1775
47.853702,176,924,-1806
47.873205,167,937,-1799
47.892738,182,926,-1750
47.912242,164,930,-1741
47.931775,110,969,-1772
47.951279,117,978,-1811
47.970782,124,953,-1799
47.990315,121,967,-1777
48.10315,114,983,-1797
48.29819,83,989,-1802
48.49352,96,987,-1777
48.68855,107,976,-1740
48.88359,96,980,-1747
48.107892,91,976,-1761
48.127395,99,965,-1750
48.146929,108,962,-1759
48.166432,107,960,-1752
48.186432,105,962,-1774
48.205966,98,957,-1795
48.225469,99,940,-1781
48.245003,92,935,-1784
48.264506,87,935,-1779
48.284040,94,919,-1775
48.303543,87,915,-1797
48.323046,78,928,-1799
48.342580,78,932,-1791
48.362580,85,914,-1786
48.382083,96,912,-1782
48.401617,96,924,-1804
48.421120,89,923,-1804
48.440623,87,924,-1779
48.460157,94,915,-1793
48.479660,103,907,-1811
48.499194,94,912,-1800
48.518697,85,919,-1797
48.538697,83,923,-1782
48.558230,85,917,-1770
48.577734,74,937,-1782
48.597267,73,946,-1793
48.616770,89,923,-1802
48.636304,82,921,-1779
48.655807,73,928,-1786
48.675310,66,930,-1811
48.694844,71,917,-1781
48.714844,82,912,-1777
48.734347,74,933,-1809
48.753881,71,930,-1820
48.773384,76,926,-1804
48.792887,73,948,-1781
48.812421,67,940,-1766
48.831924,71,939,-1761
48.851427,71,948,-1759
48.870961,73,937,-1770
48.890961,74,937,-1800
48.910464,64,940,-1806
48.929998,62,932,-1784
48.949501,74,923,-1779
48.969004,80,924,-1772
48.988538,76,924,-1766
49.8041,67,926,-1766
49.27544,67,940,-1779
49.47078,69,940,-1799
49.67078,71,940,-1795
49.86581,74,958,-1791
49.106084,80,944,-1797
49.125618,76,935,-1788
49.145121,58,949,-1781
49.164655,53,946,-1800
49.184158,48,951,-1790
49.203692,46,937,-1768
49.223195,57,946,-1786
49.243195,49,989,-1782
49.262698,57,974,-1784
49.282232,78,953,-1790
49.301735,85,949,-1759
49.321269,82,940,-1759
49.340772,71,946,-1775
49.360306,78,948,-1774
49.379809,83,944,-1788
49.399342,69,960,-1797
49.419342,69,958,-1793
49.438846,64,955,-1782
49.458349,55,951,-1765
49.477883,62,939,-1770
49.497386,71,948,-1781
49.516919,69,951,-1768
49.536423,71,942,-1766
49.555956,73,948,-1788
49.575121,64,960,-1790
49.595021,87,944,-1809
49.615021,87,928,-1800
49.634555,53,944,-1750
49.654058,66,948,-1775
49.673592,64,951,-1793
49.693095,53,951,-1770
49.712629,58,957,-1788
49.732132,62,973,-1802
49.751665,62,964,-1782
49.771169,53,960,-1770
49.791169,51,958,-1774
49.810702,53,948,-1774
49.830206,48,948,-1772
49.849709,49,955,-1786
49.869242,53,958,-1791
49.888746,53,957,-1775
49.908279,57,957,-1765
49.927782,58,953,-1763
49.947316,58,942,-1765
49.967316,64,935,-1779
49.986819,73,935,-1790
50.6353,69,940,-1782
50.25856,60,944,-1768
50.45390,62,951,-1775
50.64893,62,944,-1766
50.84427,60,923,-1757
50.103930,53,933,-1781
50.123433,48,942,-1807
50.143433,60,921,-1824
50.162967,66,914,-1791
50.182470,55,917,-1765
50.202004,60,912,-1790
50.221507,62,910,-1795
50.241040,55,903,-1786
50.260544,53,908,-1809
50.280077,48,921,-1836
50.299611,51,912,-1829
50.319611,51,907,-1813
50.339114,51,894,-1831
50.358648,46,889,-1818
50.378151,57,876,-1782
50.397654,101,828,-1806
50.417188,92,873,-1840
50.436691,57,969,-1859
50.456225,71,946,-1809
50.475728,83,917,-1731
50.495728,83,958,-1759
50.515262,96,962,-1811
50.534765,105,949,-1804
50.554299,105,944,-1770
50.573802,101,939,-1782
50.593335,105,958,-1834
50.612839,121,937,-1816
50.632372,144,896,-1786
50.651875,158,878,-1813
50.671875,176,828,-1809
50.691409,214,787,-1848
50.710912,221,812,-1893
50.730446,208,790,-1811
50.749949,230,748,-1804
50.769452,232,767,-1857
50.788986,214,776,-1824
50.808489,201,782,-1804
50.828023,191,796,-1822
50.848023,187,798,-1816
50.867526,183,805,-1795
50.887060,174,826,-1813
50.906563,137,873,-1856
50.926097,121,899,-1857
50.945600,132,896,-1822
50.965133,123,894,-1799
50.984637,116,896,-1782
51.4170,128,887,-1766
51.24170,137,876,-1820
51.43674,137,890,-1857
51.63207,146,894,-1831
51.82710,183,873,-1890
51.102244,221,844,-1965
51.121747,246,789,-1898
51.141250,271,733,-1802
51.160784,317,703,-1827
51.180287,358,733,-1923
51.200287,348,790,-1909
51.219821,380,717,-1845
51.239324,510,583,-1881
51.258858,569,576,-1929
51.278361,514,633,-1865
51.297895,498,623,-1765
51.317398,533,599,-1743
51.336932,535,592,-1734
51.356435,555,603,-1768
51.376435,605,640,-1856
51.395968,621,646,-1866
51.415472,607,637,-1843
51.435005,589,637,-1815
51.454508,548,660,-1793
51.474042,501,701,-1790
51.493545,496,712,-1756
51.513079,514,719,-1779
51.532582,526,723,-1848
51.552582,496,746,-1843
51.572116,419,817,-1793
51.591281,398,821,-1757
51.611211,428,790,-1770
51.630715,405,865,-1827
51.650248,364,914,-1784
51.669751,366,887,-1715
51.689285,362,935,-1775
51.708788,273,983,-1759
51.728322,208,994,-1682
51.748322,237,1033,-1727
51.767825,219,1078,-1782
51.787328,183,1112,-1772
51.806862,191,1110,-1720
51.826365,187,1101,-1668
51.845899,173,1087,-1615
51.865402,158,1071,-1613
51.884905,126,1117,-1656
51.904439,96,1187,-1702
51.924439,139,1194,-1795
51.943942,126,1178,-1690
51.963476,41,1185,-1527
51.982979,87,1146,-1645
52.2513,128,1130,-1699
52.22016,76,1185,-1636
52.41550,46,1217,-1636
52.61053,16,1260,-1622
52.80586,30,1248,-1607
52.100586,64,1182,-1577
52.120090,55,1208,-1609
52.139623,58,1228,-1670
52.159126,60,1187,-1618
52.178630,42,1174,-1568
52.198163,37,1176,-1590
52.217666,32,1189,-1613
52.237200,21,1217,-1625
52.256703,14,1244,-1649
52.276703,7,1271,-1661
52.296206,7,1262,-1650
52.315740,14,1233,-1616
52.335243,14,1233,-1581
52.354777,16,1231,-1566
52.374280,12,1231,-1572
52.393814,1,1248,-1584
52.413317,-2,1242,-1584
52.432820,-2,1235,-1588
52.452820,-2,1248,-1602
52.472354,-17,1260,-1607
52.491857,-36,1255,-1595
52.511360,-24,1246,-1582
52.530894,-9,1262,-1597
52.550397,-13,1273,-1611
52.569931,-22,1269,-1595
52.589434,-29,1264,-1581
52.608937,-31,1249,-1559
52.628937,-34,1251,-1556
52.648471,-38,1273,-1593
52.667974,-43,1287,-1606
52.687477,-40,1276,-1582
52.707011,-31,1262,-1565
52.726514,-31,1276,-1575
52.746017,-25,1253,-1572
52.765551,-25,1221,-1554
52.785054,-40,1262,-1568
52.805054,-40,1278,-1579
52.824588,-36,1242,-1563
52.844091,-42,1248,-1557
52.863594,-45,1271,-1581
52.883128,-54,1264,-1582
52.902631,-68,1246,-1565
52.922134,-74,1264,-1577
52.941668,-74,1283,-1593
52.961171,-68,1271,-1586
52.981171,-61,1258,-1584
53.674,-63,1242,-1565
53.20208,-68,1228,-1552
53.39711,-65,1239,-1572
53.59245,-68,1246,-1574
53.78748,-79,1253,-1577
53.98251,-77,1281,-1599
53.117785,-79,1280,-1595
53.137288,-84,1244,-1557
53.157288,-95,1248,-1557
53.176791,-102,1280,-1588
53.196325,-100,1292,-1581
53.215828,-97,1260,-1540
53.235362,-100,1244,-1534
53.254865,-118,1280,-1574
53.274368,-122,1280,-1559
53.293902,-113,1269,-1557
53.313405,-125,1303,-1595
53.333405,-131,1306,-1577
53.352939,-124,1273,-1538
53.372442,-122,1265,-1516
53.391945,-134,1285,-1511
53.411448,-136,1296,-1534
53.430982,-133,1296,-1540
53.450485,-147,1315,-1520
53.470019,-152,1324,-1506
53.489522,-158,1301,-1486
53.509522,-168,1317,-1502
53.529056,-177,1356,-1541
53.548221,-199,1353,-1524
53.567782,-209,1333,-1495
53.587375,-202,1340,-1488
53.606936,-208,1344,-1481
53.626498,-215,1335,-1495
53.646060,-208,1346,-1520
53.665622,-215,1340,-1502
53.685214,-220,1310,-1484
53.704776,-204,1294,-1491
53.724338,-252,1330,-1524
53.743899,-288,1342,-1540
53.763461,-236,1299,-1506
53.783023,-242,1321,-1513
53.802615,-265,1344,-1552
53.822177,-238,1310,-1552
53.841739,-227,1290,-1534
53.861300,-254,1292,-1540
53.880893,-272,1294,-1557
53.900455,-258,1290,-1566
53.920016,-261,1287,-1559
53.939578,-261,1274,-1545
53.959140,-236,1267,-1572
53.978702,-254,1278,-1568
53.998294,-272,1276,-1527
54.17856,-274,1289,-1557
54.37417,-292,1301,-1547
54.57010,-281,1274,-1511
54.76571,-265,1260,-1538
54.96133,-259,1267,-1540
; 54.096 stopping logging: shutdown: switched off
